Time [h]	Zone(id=1).WindowSolarRadiationFluxSum [W]	Zone(id=1).WindowSolarRadiationLoad [W]	EmbeddedObject(id=1001).FluxShortWaveRadiationB [W]	EmbeddedObject(id=1002).FluxShortWaveRadiationB [W]	EmbeddedObject(id=1003).FluxShortWaveRadiationB [W]	EmbeddedObject(id=1004).FluxShortWaveRadiationB [W]	Model(id=2000).SolarIntensity [W/m2]	Model(id=2001).SolarIntensity [W/m2]
4344	0	0	0	0	0	0	0	0
4344.17	0	0	0	0	0	0	0	0
4344.33	0	0	0	0	0	0	0	0
4344.5	0	0	0	0	0	0	0	0
4344.67	0	0	0	0	0	0	0	0
4344.83	0	0	0	0	0	0	0	0
4345	0	0	0	0	0	0	0	0
4345.17	0	0	0	0	0	0	0	0
4345.33	0	0	0	0	0	0	0	0
4345.5	0	0	0	0	0	0	0	0
4345.67	0	0	0	0	0	0	0	0
4345.83	0	0	0	0	0	0	0	0
4346	0	0	0	0	0	0	0	0
4346.17	0	0	0	0	0	0	0	0
4346.33	0	0	0	0	0	0	0	0
4346.5	0	0	0	0	0	0	0	0
4346.67	5.04	2.52	1.08	0.72	1.44	1.8	1	0.6
4346.83	10.08	5.04	2.16	1.44	2.88	3.6	2	1.2
4347	15.12	7.56	3.24	2.16	4.32	5.4	3	1.8
4347.17	20.16	10.08	4.32	2.88	5.76	7.2	4	2.4
4347.33	25.2	12.6	5.4	3.6	7.2	9	5	3
4347.5	30.24	15.12	6.48	4.32	8.64	10.8	6	3.6
4347.67	39.48	19.74	8.46	5.64	11.28	14.1	7.83333	4.7
4347.83	48.72	24.36	10.44	6.96	13.92	17.4	9.66667	5.8
4348	57.96	28.98	12.42	8.28	16.56	20.7	11.5	6.9
4348.17	67.2	33.6	14.4	9.6	19.2	24	13.3333	8
4348.33	76.44	38.22	16.38	10.92	21.84	27.3	15.1667	9.1
4348.5	85.68	42.84	18.36	12.24	24.48	30.6	17	10.2
4348.67	120.12	60.06	25.74	17.16	34.32	42.9	23.8333	14.3
4348.83	154.56	77.28	33.12	22.08	44.16	55.2	30.6667	18.4
4349	189	94.5	40.5	27	54	67.5	37.5	22.5
4349.17	223.44	111.72	47.88	31.92	63.84	79.8	44.3333	26.6
4349.33	257.88	128.94	55.26	36.84	73.68	92.1	51.1667	30.7
4349.5	292.32	146.16	62.64	41.76	83.52	104.4	58	34.8
4349.67	432.619	216.309	93.7104	71.3085	118.933	148.667	84.7218	49.5555
4349.83	571.905	285.953	123.302	101.039	154.473	193.091	111.97	64.3637
4350	710.342	355.171	151.645	130.883	190.14	237.675	139.749	79.2249
4350.17	848.093	424.046	178.968	160.773	225.934	282.418	168.059	94.1393
4350.33	985.318	492.659	205.501	190.64	261.856	327.32	196.899	109.107
4350.5	1122.17	561.087	231.473	220.417	297.904	372.38	226.267	124.127
4350.67	1163.11	581.554	239.285	220.949	312.389	390.486	235.786	130.162
4350.83	1204.6	602.298	247.896	221.394	326.803	408.504	245.013	136.168
4351	1246.57	623.285	257.198	221.788	341.148	426.435	253.95	142.145
4351.17	1288.92	644.459	267.048	222.169	355.423	444.279	262.597	148.093
4351.33	1331.54	665.772	277.304	222.573	369.63	462.037	270.957	154.012
4351.5	1374.34	687.171	287.826	223.033	383.773	479.71	279.032	159.903
4351.67	1382.83	691.416	290.249	221.659	387.176	483.749	280.828	161.25
4351.83	1391.46	695.729	292.652	220.315	390.74	487.753	282.508	162.584
4352	1400.17	700.084	295.033	219.018	394.394	491.722	284.073	163.907
4352.17	1408.91	704.453	297.394	217.784	398.071	495.657	285.524	165.219
4352.33	1417.63	708.815	299.736	216.628	401.707	499.56	286.866	166.52
4352.5	1426.27	713.133	302.058	215.536	405.242	503.43	288.101	167.81
4352.67	1993.11	996.555	319.893	599.072	540.99	533.155	313.017	177.718
4352.83	2135.17	1067.59	337.83	656.723	577.57	563.05	338.498	187.683
4353	2277.1	1138.55	355.862	711.66	616.475	593.104	364.512	197.701
4353.17	2418.9	1209.45	373.985	763.765	657.839	623.308	391.026	207.769
4353.33	2559.6	1279.8	392.191	812.01	701.744	653.652	418.005	217.884
4353.5	2699.25	1349.63	410.474	856.432	748.221	684.123	445.41	228.041
4353.67	2814.34	1407.17	428.794	881.091	789.802	714.657	466.357	238.219
4353.83	2927.83	1463.92	447.12	904.829	830.682	745.201	487.335	248.4
4354	3039.9	1519.95	465.45	927.451	871.251	775.75	508.332	258.583
4354.17	3148.23	1574.11	483.78	946.07	912.077	806.3	529.332	268.767
4354.33	3256.23	1628.12	502.108	964.207	953.071	836.847	550.322	278.949
4354.5	3363.95	1681.98	520.432	981.998	994.138	867.386	571.287	289.129
4354.67	3439.08	1719.54	522.359	1000.35	1045.77	870.598	602.827	290.199
4354.83	3505	1752.5	524.397	1005.83	1100.78	873.995	634.983	291.332
4355	3563.15	1781.58	526.523	1000.52	1158.56	877.539	667.629	292.513
4355.17	3617.17	1808.58	528.714	988.802	1218.46	881.191	700.634	293.73
4355.33	3668.37	1834.18	530.947	972.745	1279.76	884.911	733.869	294.97
4355.5	3717.56	1858.78	533.196	953.973	1341.73	888.66	767.2	296.22
4355.67	3563.66	1781.83	515.547	894.642	1294.23	859.245	736.651	286.415
4355.83	3416.35	1708.17	497.805	845.033	1243.84	829.674	705.581	276.558
4356	3274.78	1637.39	479.98	803.957	1190.88	799.967	674.057	266.656
4356.17	3138.12	1569.06	462.086	770.181	1135.71	770.144	642.145	256.715
4356.33	3005.51	1502.76	444.135	740.224	1078.72	742.434	609.913	256.487
4356.5	2876.08	1438.04	426.138	710.229	1020.29	719.42	577.431	255.817
4356.67	2906.92	1453.46	428.757	714.596	1027.1	736.466	582.818	267.884
4356.83	2941.56	1470.78	431.323	718.871	1032.22	759.148	587.903	280.249
4357	2979.24	1489.62	433.831	723.052	1035.64	786.72	592.672	292.888
4357.17	3019.61	1509.8	436.281	727.134	1037.32	818.875	597.113	305.774
4357.33	3063.43	1531.72	438.669	731.114	1037.27	856.385	601.214	318.88
4357.5	3110.82	1555.41	440.993	734.989	1035.5	899.34	604.963	332.178
4357.67	3191.96	1595.98	456.705	761.175	1025.74	948.341	601.416	343.376
4357.83	3263.22	1631.61	472.448	787.413	1017.15	986.214	598.043	352.701
4358	3332.01	1666	488.235	813.725	1010.1	1019.95	594.916	360.192
4358.17	3398.15	1699.08	504.08	840.133	1004.94	1049	592.108	365.892
4358.33	3461.5	1730.75	519.994	866.657	1001.96	1072.9	589.688	369.855
4358.5	3518.72	1759.36	535.99	893.317	1001.42	1088	587.723	372.136
4358.67	3349.57	1674.78	508.054	846.756	943.255	1051.5	557.521	358.909
4358.83	3177.83	1588.92	480.119	800.198	883.412	1014.1	527.325	345.27
4359	3005.93	1502.96	452.187	753.645	824.351	975.745	497.149	331.227
4359.17	2833.61	1416.8	424.262	707.103	766.172	936.073	467.008	316.788
4359.33	2659.44	1329.72	396.345	660.575	708.96	893.562	436.916	301.961
4359.5	2485.27	1242.63	368.439	614.066	652.782	849.978	406.885	286.759
4359.67	2376.34	1188.17	351.086	585.143	615.476	824.639	387.142	277.651
4359.83	2267.53	1133.76	333.742	556.236	579.183	798.367	367.454	268.228
4360	2158.27	1079.13	316.41	527.349	543.659	770.849	347.83	258.5
4360.17	2048.55	1024.28	299.091	498.485	509.22	741.758	328.282	248.477
4360.33	1939.22	969.608	281.788	469.646	475.993	711.789	308.82	238.171
4360.5	1830.27	915.135	264.501	440.835	443.968	680.966	289.451	227.594
4360.67	1847.29	923.644	254.45	424.084	425.513	743.242	291.113	248.181
4360.83	1865.83	932.914	244.155	406.924	407.082	807.666	291.414	269.329
4361	1885.19	942.594	233.82	389.348	389.348	872.673	290.325	290.891
4361.17	1905.51	952.755	224.668	371.347	371.347	938.147	287.824	312.716
4361.33	1927.26	963.629	217.468	352.918	352.918	1003.95	283.893	334.651
4361.5	1950.67	975.333	212.919	334.056	334.056	1069.63	278.52	356.545
4361.67	1743.54	871.772	200.045	304.042	304.042	935.417	243.472	311.806
4361.83	1535.07	767.537	186.609	274.6	274.6	799.265	210.332	266.422
4362	1324.47	662.234	171.188	245.737	245.737	661.806	179.123	220.602
4362.17	938.082	469.041	153.46	86.9836	173.967	523.671	149.863	174.557
4362.33	745.815	372.907	132.602	75.9074	151.815	385.491	122.561	128.497
4362.5	550.861	275.43	107.765	65.0664	130.133	247.897	97.2195	82.6325
4362.67	517.796	258.898	101.444	58.3665	116.733	241.252	88.0541	80.4174
4362.83	484.616	242.308	95.4265	51.6449	103.29	234.255	78.707	78.0851
4363	451.334	225.667	89.7791	44.9018	89.8037	226.849	69.1819	75.6165
4363.17	418.135	209.068	84.7428	38.138	76.2759	218.978	59.4829	72.9928
4363.33	385	192.5	80.3513	31.3538	62.7076	210.587	49.6149	70.1957
4363.5	351.898	175.949	76.6356	24.55	49.1	201.613	39.5833	67.2075
4363.67	293.122	146.561	66.7208	20.3348	40.6697	165.397	31.9568	55.2577
4363.83	233.987	116.994	55.4261	16.1708	32.3416	130.049	24.7566	43.5505
4364	175.008	87.504	43.1291	12.0567	24.1135	95.7086	17.9728	32.1294
4364.17	116.286	58.1432	29.805	7.99131	15.9826	62.5074	11.5943	21.0368
4364.33	57.9194	28.9597	15.4336	3.97297	7.94594	30.5669	5.60808	10.3138
4364.5	0	0	0	0	0	0	0	0
4364.67	0	0	0	0	0	0	0	0
4364.83	0	0	0	0	0	0	0	0
4365	0	0	0	0	0	0	0	0
4365.17	0	0	0	0	0	0	0	0
4365.33	0	0	0	0	0	0	0	0
4365.5	0	0	0	0	0	0	0	0
4365.67	0	0	0	0	0	0	0	0
4365.83	0	0	0	0	0	0	0	0
4366	0	0	0	0	0	0	0	0
4366.17	0	0	0	0	0	0	0	0
4366.33	0	0	0	0	0	0	0	0
4366.5	0	0	0	0	0	0	0	0
4366.67	0	0	0	0	0	0	0	0
4366.83	0	0	0	0	0	0	0	0
4367	0	0	0	0	0	0	0	0
4367.17	0	0	0	0	0	0	0	0
4367.33	0	0	0	0	0	0	0	0
4367.5	0	0	0	0	0	0	0	0
4367.67	0	0	0	0	0	0	0	0
4367.83	0	0	0	0	0	0	0	0
4368	0	0	0	0	0	0	0	0
4368.17	0	0	0	0	0	0	0	0
4368.33	0	0	0	0	0	0	0	0
4368.5	0	0	0	0	0	0	0	0
4368.67	0	0	0	0	0	0	0	0
4368.83	0	0	0	0	0	0	0	0
4369	0	0	0	0	0	0	0	0
4369.17	0	0	0	0	0	0	0	0
4369.33	0	0	0	0	0	0	0	0
4369.5	0	0	0	0	0	0	0	0
4369.67	0	0	0	0	0	0	0	0
4369.83	0	0	0	0	0	0	0	0
4370	0	0	0	0	0	0	0	0
4370.17	0	0	0	0	0	0	0	0
4370.33	0	0	0	0	0	0	0	0
4370.5	0	0	0	0	0	0	0	0
4370.67	0	0	0	0	0	0	0	0
4370.83	0	0	0	0	0	0	0	0
4371	0	0	0	0	0	0	0	0
4371.17	0	0	0	0	0	0	0	0
4371.33	0	0	0	0	0	0	0	0
4371.5	0	0	0	0	0	0	0	0
4371.67	32.76	16.38	7.02	4.68	9.36	11.7	6.5	3.9
4371.83	65.52	32.76	14.04	9.36	18.72	23.4	13	7.8
4372	155.799	77.8995	52.053	40.4609	28.1267	35.1584	19.6946	11.7195
4372.17	207.077	103.538	67.1173	55.1437	37.6959	47.1198	27.0661	15.7066
4372.33	257.986	128.993	81.0633	70.3446	47.3681	59.2101	34.867	19.7367
4372.5	308.504	154.252	93.9144	86.0102	57.1466	71.4332	43.1106	23.8111
4372.67	415.583	207.791	130.061	131.641	68.3917	85.4897	54.9654	28.4966
4372.83	520.539	260.269	161.434	178.97	80.0598	100.075	68.5825	33.3583
4373	621.3	310.65	186.591	227.349	92.1604	115.201	84.0017	38.4002
4373.17	719.296	359.648	207.1	276.618	104.702	130.877	101.256	43.6256
4373.33	814.813	407.407	223.358	326.654	117.689	147.112	120.372	49.0373
4373.5	908.038	454.019	235.776	377.222	131.129	163.911	141.37	54.637
4373.67	968.964	484.482	236.254	409.081	143.835	179.794	160.146	59.9313
4373.83	1024.42	512.21	230.913	440.707	156.8	196	180.001	65.3335
4374	1079.65	539.823	225.132	471.962	170.023	212.529	200.93	70.843
4374.17	1134.96	567.481	219.375	502.71	183.501	229.376	222.92	76.4586
4374.33	1190.67	595.337	214.095	532.812	197.23	246.537	245.956	82.179
4374.5	1247.07	623.537	209.73	562.134	211.205	264.006	270.02	88.0021
4374.67	1288.71	644.354	207.066	564.168	229.989	287.486	289.953	95.8286
4374.83	2242.9	1121.45	207.715	1413.43	310.879	310.879	309.595	103.626
4375	2294.54	1147.27	211.745	1414.44	334.18	334.18	328.932	111.393
4375.17	2347.27	1173.64	218.963	1413.54	357.384	357.384	347.947	119.128
4375.33	2400.97	1200.49	229.167	1410.83	380.488	380.488	366.626	126.829
4375.5	2455.55	1227.78	242.092	1406.4	403.574	403.487	384.956	134.496
4375.67	2502.61	1251.31	261.239	1367.62	438.357	435.399	401.329	145.133
4375.83	2552.24	1276.12	280.197	1328.81	476.244	466.994	416.647	155.665
4376	2604	1302	298.966	1290.36	516.391	498.277	430.921	166.092
4376.17	2657.44	1328.72	317.55	1252.65	557.983	529.25	444.166	176.417
4376.33	2712.14	1356.07	335.952	1216.02	600.25	559.919	456.397	186.64
4376.5	2766.64	1383.32	354.175	1179.77	642.404	590.291	467.637	196.764
4376.67	2527.21	1263.6	332.633	1029.23	610.956	554.388	428.793	184.796
4376.83	2288.68	1144.34	310.763	885.024	574.958	517.938	388.127	172.646
4377	2050.82	1025.41	288.579	747.637	533.637	480.966	345.718	160.322
4377.17	1813.44	906.719	266.097	617.495	486.35	443.495	301.651	147.832
4377.33	1575.96	787.982	243.333	494.477	432.599	405.555	256.016	135.185
4377.5	1339.71	669.854	220.304	380.204	372.027	367.173	208.91	122.391
4377.67	1292.17	646.087	212.676	365.562	359.478	354.459	201.531	118.153
4377.83	1244.58	622.291	205.043	351.066	346.735	341.738	194.125	113.913
4378	1196.98	598.492	197.405	336.712	333.857	329.009	186.695	109.67
4378.17	1149.29	574.644	189.764	322.368	320.884	316.273	179.242	105.424
4378.33	1101.7	550.849	182.118	308.232	307.818	303.53	171.767	101.177
4378.5	1054.21	527.104	174.469	294.294	294.663	290.782	164.273	96.9273
4378.67	1155.53	577.767	191.161	322.25	323.523	318.601	180.336	106.2
4378.83	1256.66	628.328	207.854	349.933	352.446	346.423	196.411	115.474
4379	1357.61	678.806	224.549	377.396	381.418	374.248	212.494	124.749
4379.17	1458.5	729.249	241.245	404.75	410.427	402.075	228.583	134.025
4379.33	1559.34	779.67	257.942	432.038	439.458	429.903	244.675	143.301
4379.5	1660.16	830.078	274.638	459.293	468.494	457.73	260.767	152.577
4379.67	1721.74	860.872	284.726	475.561	486.914	474.544	270.98	158.181
4379.83	1783.37	891.686	294.814	491.883	505.317	491.357	281.19	163.786
4380	1845.08	922.542	304.901	508.331	523.683	508.168	291.393	169.389
4380.17	1906.93	953.464	314.985	524.978	541.989	524.976	301.585	174.992
4380.33	1968.95	984.477	325.068	541.779	560.214	541.894	311.763	181.111
4380.5	2031.21	1015.6	335.146	558.577	578.336	559.15	321.923	187.392
4380.67	2156.37	1078.19	353.775	589.625	621.175	591.798	346.249	199.51
4380.83	2282.64	1141.32	372.388	620.646	663.522	626.089	370.486	212.396
4381	2410.26	1205.13	390.979	651.632	705.211	662.434	394.605	226.037
4381.17	2539.39	1269.7	409.544	682.573	746.088	701.188	418.574	240.419
4381.33	2670.44	1335.22	428.076	713.46	786.008	742.897	442.365	255.521
4381.5	2803.69	1401.85	446.571	744.284	824.843	787.997	465.946	271.322
4381.67	2798.96	1399.48	443.19	738.65	820.767	796.349	465.499	273.876
4381.83	2792.93	1396.47	439.78	732.966	815.916	804.269	464.887	276.707
4382	2787.69	1393.85	436.338	727.229	810.269	813.858	464.097	279.799
4382.17	2783.28	1391.64	432.861	721.436	803.818	825.16	463.118	283.135
4382.33	2779.7	1389.85	429.349	715.582	796.564	838.207	461.939	286.694
4382.5	2774.73	1387.37	425.799	709.665	788.517	850.749	460.55	290.458
4382.67	2422.89	1211.44	372.184	620.307	681.448	748.949	399.356	254.941
4382.83	2068.48	1034.24	318.643	531.072	575.215	643.552	338.572	218.329
4383	1713.4	856.702	265.183	441.972	471.714	534.534	278.24	180.675
4383.17	1357.58	678.791	211.813	353.021	370.941	421.807	218.404	142.035
4383.33	1000.84	500.422	158.538	264.23	272.837	305.239	159.101	102.47
4383.5	503.129	251.564	105.367	70.2444	141.827	185.69	100.37	62.0436
4383.67	585.877	292.938	119.655	79.77	162.098	224.354	117.249	75.0734
4383.83	668.951	334.476	133.894	89.2629	181.676	264.118	133.857	88.3959
4384	752.246	376.123	148.082	98.7217	200.609	304.833	150.18	101.981
4384.17	835.63	417.815	162.217	108.145	219.027	346.241	166.207	115.795
4384.33	919.29	459.645	176.297	117.531	237.1	388.361	181.928	129.808
4384.5	1003.29	501.644	190.32	126.88	254.995	431.093	197.333	143.984
4384.67	972.299	486.15	182.373	121.582	243.625	424.719	189.851	141.736
4384.83	941.539	470.77	174.409	116.273	232.595	418.262	182.274	139.453
4385	910.715	455.357	166.478	110.952	221.905	411.379	174.602	137.126
4385.17	879.965	439.982	158.865	105.62	211.241	404.239	166.836	134.746
4385.33	849.397	424.699	151.656	100.277	200.554	396.91	158.976	132.303
4385.5	819.035	409.517	144.902	94.9229	189.846	389.364	151.024	129.788
4385.67	1054.19	527.096	152.014	94.3484	188.697	619.132	176.236	206.377
4385.83	1294.74	647.371	165.196	93.2812	186.562	849.703	197.343	283.234
4386	1540.42	770.208	185.513	91.7186	183.437	1079.75	214.322	359.916
4386.17	1791.88	895.939	214.96	89.6598	179.32	1307.94	227.165	435.979
4386.33	2049.65	1024.82	255.379	87.1058	174.212	1532.95	235.882	510.983
4386.5	2314.2	1157.1	308.561	84.0596	168.119	1753.46	240.497	584.487
4386.67	1964.69	982.343	292.114	71.3223	142.645	1458.61	192.685	486.202
4386.83	1604.45	802.223	261.532	59.1378	118.276	1165.5	149.482	388.5
4387	1236.7	618.348	218.576	47.5034	95.0069	875.609	110.862	291.87
4387.17	864.896	432.448	165.273	36.4141	72.8281	590.381	76.7837	196.794
4387.33	489.478	244.739	100.646	25.8626	51.7252	311.244	47.1883	103.748
4387.5	110.88	55.44	23.76	15.84	31.68	39.6	22	13.2
4387.67	94.92	47.46	20.34	13.56	27.12	33.9	18.8333	11.3
4387.83	78.96	39.48	16.92	11.28	22.56	28.2	15.6667	9.4
4388	63	31.5	13.5	9	18	22.5	12.5	7.5
4388.17	47.04	23.52	10.08	6.72	13.44	16.8	9.33333	5.6
4388.33	31.08	15.54	6.66	4.44	8.88	11.1	6.16667	3.7
4388.5	15.12	7.56	3.24	2.16	4.32	5.4	3	1.8
4388.67	12.6	6.3	2.7	1.8	3.6	4.5	2.5	1.5
4388.83	10.08	5.04	2.16	1.44	2.88	3.6	2	1.2
4389	7.56	3.78	1.62	1.08	2.16	2.7	1.5	0.9
4389.17	5.04	2.52	1.08	0.72	1.44	1.8	1	0.6
4389.33	2.52	1.26	0.54	0.36	0.72	0.9	0.5	0.3
4389.5	0	0	0	0	0	0	0	0
4389.67	0	0	0	0	0	0	0	0
4389.83	0	0	0	0	0	0	0	0
4390	0	0	0	0	0	0	0	0
4390.17	0	0	0	0	0	0	0	0
4390.33	0	0	0	0	0	0	0	0
4390.5	0	0	0	0	0	0	0	0
4390.67	0	0	0	0	0	0	0	0
4390.83	0	0	0	0	0	0	0	0
4391	0	0	0	0	0	0	0	0
4391.17	0	0	0	0	0	0	0	0
4391.33	0	0	0	0	0	0	0	0
4391.5	0	0	0	0	0	0	0	0
4391.67	0	0	0	0	0	0	0	0
4391.83	0	0	0	0	0	0	0	0
4392	0	0	0	0	0	0	0	0
4392.17	0	0	0	0	0	0	0	0
4392.33	0	0	0	0	0	0	0	0
4392.5	0	0	0	0	0	0	0	0
4392.67	0	0	0	0	0	0	0	0
4392.83	0	0	0	0	0	0	0	0
4393	0	0	0	0	0	0	0	0
4393.17	0	0	0	0	0	0	0	0
4393.33	0	0	0	0	0	0	0	0
4393.5	0	0	0	0	0	0	0	0
4393.67	0	0	0	0	0	0	0	0
4393.83	0	0	0	0	0	0	0	0
4394	0	0	0	0	0	0	0	0
4394.17	0	0	0	0	0	0	0	0
4394.33	0	0	0	0	0	0	0	0
4394.5	0	0	0	0	0	0	0	0
4394.67	0	0	0	0	0	0	0	0
4394.83	0	0	0	0	0	0	0	0
4395	0	0	0	0	0	0	0	0
4395.17	0	0	0	0	0	0	0	0
4395.33	0	0	0	0	0	0	0	0
4395.5	0	0	0	0	0	0	0	0
4395.67	30.24	15.12	6.48	4.32	8.64	10.8	6	3.6
4395.83	60.48	30.24	12.96	8.64	17.28	21.6	12	7.2
4396	770.616	385.308	385.924	325.399	26.3521	32.9402	19.8005	10.9801
4396.17	584.772	292.386	264.121	239.564	36.0389	45.0487	30.1622	15.0162
4396.33	402.436	201.218	155.04	146.886	44.671	55.8388	36.1292	18.6129
4396.5	223.878	111.939	58.5202	47.8936	52.2065	65.2582	37.5271	21.7527
4396.67	326.818	163.409	94.0503	89.0356	63.8808	79.851	48.6699	26.617
4396.83	427.994	213.997	125.377	131.769	75.9326	94.9158	61.3858	31.6386
4397	525.804	262.902	151.394	175.576	88.3709	110.464	75.712	36.8212
4397.17	621.116	310.558	173.134	220.275	101.203	126.504	91.6798	42.168
4397.33	714.156	357.078	190.949	265.727	114.436	143.044	109.315	47.6815
4397.5	805.09	402.545	205.206	311.721	128.072	160.091	128.635	53.3635
4397.67	897.142	448.571	217.273	365.579	139.684	174.606	149.518	58.2019
4397.83	982.49	491.245	221.26	419.682	151.799	189.749	172.496	63.2496
4398	1065.67	532.835	221.969	473.764	164.417	205.521	197.569	68.5069
4398.17	1147.32	573.66	220.309	527.555	177.536	221.92	224.732	73.9732
4398.33	1228.06	614.03	217.179	580.787	191.153	238.941	253.971	79.6472
4398.5	1308.5	654.248	213.464	633.19	205.264	256.58	285.266	85.5266
4398.67	2392.26	1196.13	204.297	1647.97	269.996	269.996	309.152	89.9986
4398.83	2474.91	1237.45	197.517	1710	283.698	283.698	333.992	94.5659
4399	2557.91	1278.96	193.819	1768.74	297.676	297.676	359.753	99.2253
4399.17	2641.3	1320.65	193.578	1823.89	311.919	311.919	386.397	103.973
4399.33	2725.1	1362.55	197.133	1875.13	326.415	326.415	413.884	108.805
4399.5	2809.32	1404.66	204.69	1922.18	341.301	341.151	442.168	113.717
4399.67	2827.24	1413.62	218.685	1874.73	369.347	364.474	459.914	121.491
4399.83	2848.53	1424.26	232.508	1825.41	403.095	387.513	476.711	129.171
4400	2872.97	1436.49	246.16	1774.86	441.687	410.266	492.554	136.755
4400.17	2900.08	1450.04	259.639	1723.43	484.278	432.732	507.439	144.244
4400.33	2929.36	1464.68	272.947	1671.47	530.037	454.911	521.37	151.637
4400.5	2958.36	1479.18	286.083	1617.48	577.998	476.805	534.35	158.935
4400.67	2967.14	1483.57	294.657	1562.28	619.108	491.094	544.481	163.698
4400.83	2976.81	1488.41	303.09	1507.31	661.265	505.15	553.833	168.383
4401	2987.07	1493.54	311.384	1452.81	703.908	518.973	562.41	172.991
4401.17	2997.64	1498.82	319.54	1399.04	746.501	532.566	570.22	177.522
4401.33	3004.02	1502.01	327.559	1341.99	788.533	545.932	577.272	181.977
4401.5	3007.81	1503.91	335.444	1283.77	829.529	559.074	583.579	186.358
4401.67	3081.56	1540.78	341.846	1279.02	890.953	569.743	609.976	189.914
4401.83	3147.56	1573.78	348.303	1269.08	949.673	580.506	636.685	193.502
4402	3208.38	1604.19	354.804	1253.89	1008.34	591.34	663.633	197.113
4402.17	3251.44	1625.72	361.334	1219.06	1068.82	602.223	690.743	200.741
4402.33	3292.36	1646.18	367.879	1180.69	1130.66	613.132	717.939	204.377
4402.5	3331.34	1665.67	374.426	1139.46	1193.41	624.043	745.142	208.014
4402.67	3028.57	1514.28	358.303	971.419	1101.68	597.171	672.238	199.057
4402.83	2730.73	1365.37	341.78	820.35	998.968	569.634	597.112	189.878
4403	2445.91	1222.96	324.905	693.24	886.26	541.509	520.028	180.503
4403.17	2179.07	1089.53	307.727	593.79	764.672	512.878	441.258	170.959
4403.33	1927.45	963.726	290.294	517.865	635.469	483.823	361.077	161.274
4403.5	1688.22	844.11	272.658	461.094	500.037	454.43	279.767	151.477
4403.67	1921.09	960.545	287.419	494.089	660.55	479.032	373.439	159.677
4403.83	2146.56	1073.28	302.285	516.062	824.406	503.809	467.695	167.936
4404	2369.11	1184.55	317.193	533.655	989.606	528.654	562.181	176.218
4404.17	2593.22	1296.61	332.078	553.571	1154.11	553.463	656.543	184.488
4404.33	2823.41	1411.7	346.876	578.127	1315.88	582.525	750.424	212.929
4404.5	3064.14	1532.07	361.525	602.542	1472.88	627.196	843.472	252.99
4404.67	3087.05	1543.53	367.125	611.875	1440.02	668.031	827.917	281.095
4404.83	3116.96	1558.48	372.626	621.043	1404.09	719.201	811.808	306.873
4405	3150.65	1575.32	378.042	630.07	1365.68	776.86	795.234	330.304
4405.17	3186.05	1593.03	383.391	638.986	1325.38	838.299	778.285	351.376
4405.33	3223.97	1611.98	388.689	647.815	1283.79	903.675	761.05	370.084
4405.5	3263.48	1631.74	393.952	656.586	1241.5	971.437	743.619	386.434
4405.67	3177.09	1588.54	380.875	634.791	1160.11	1001.32	703.47	387.428
4405.83	3072.47	1536.24	367.823	613.038	1079.97	1011.65	663.461	385.511
4406	2964.4	1482.2	354.817	591.362	1001.7	1016.52	623.705	380.732
4406.17	2852.63	1426.32	341.876	569.793	925.882	1015.08	584.311	373.15
4406.33	2736.92	1368.46	329.02	548.366	853.018	1006.52	545.387	362.836
4406.5	2609.81	1304.91	316.267	527.112	783.561	982.871	507.039	349.868
4406.67	2503.67	1251.83	304.236	507.06	726.717	965.653	476.866	340.779
4406.83	2390.41	1195.2	292.285	487.141	667.779	943.203	447.136	329.882
4407	2275.95	1137.97	280.425	467.375	612.739	915.409	417.915	317.243
4407.17	2160.1	1080.05	268.669	447.781	561.984	881.669	389.271	302.935
4407.33	2040.33	1020.16	257.028	428.38	515.587	839.333	361.267	287.036
4407.5	1920.38	960.192	245.513	409.189	473.534	792.147	333.963	269.631
4407.67	1990.56	995.279	242.365	403.942	465.645	878.606	347.307	298.37
4407.83	2061.47	1030.73	238.945	398.241	454.057	970.224	359.136	328.387
4408	2131.86	1065.93	235.241	392.068	438.859	1065.69	369.392	359.518
4408.17	2200.96	1100.48	231.244	385.406	421.259	1163.05	378.021	391.591
4408.33	2271.33	1135.67	226.946	378.243	402.773	1263.37	384.976	424.431
4408.5	2343.6	1171.8	222.339	370.565	384.595	1366.1	390.216	457.859
4408.67	2045.78	1022.89	198.116	330.193	334.533	1182.94	331.476	395.451
4408.83	1747.86	873.929	174.4	290.667	291.078	991.714	275.555	330.737
4409	1447.51	723.756	151.374	252.013	252.013	792.112	222.542	264.037
4409.17	1145.18	572.592	129.638	214.256	214.256	587.035	172.519	195.678
4409.33	698.966	349.483	108.088	70.9661	141.932	377.979	125.551	125.993
4409.5	421.067	210.534	85.2996	56.6035	113.207	165.957	81.6961	55.3189
4409.67	425.391	212.695	82.1701	53.9484	107.897	181.376	80.4033	60.4585
4409.83	430.233	215.117	79.6413	51.2464	102.493	196.853	78.7195	65.6176
4410	435.563	217.781	77.809	48.4971	96.9943	212.263	76.6427	70.7542
4410.17	441.443	220.721	76.8625	45.7007	91.4014	227.478	74.1724	75.826
4410.33	447.925	223.963	76.9806	42.8572	85.7143	242.373	71.3096	80.7911
4410.5	455.057	227.529	78.334	39.9668	79.9337	256.823	68.0568	85.6077
4410.67	527.15	263.575	90.2676	38.8249	77.6498	320.407	70.2074	106.802
4410.83	600.14	300.07	105.035	37.5412	75.0825	382.482	71.1768	127.494
4411	673.406	336.703	122.382	36.1177	72.2354	442.672	70.9809	147.557
4411.17	747.417	373.709	143.138	34.5568	69.1136	500.609	69.6397	166.87
4411.33	822.053	411.027	167.536	32.8614	65.7227	555.933	67.178	185.311
4411.5	897.191	448.596	195.794	31.035	62.0699	608.292	63.6247	202.764
4411.67	750.01	375.005	174.681	25.755	51.5101	498.065	49.6253	166.449
4411.83	601.105	300.552	148.128	20.6687	41.3373	390.97	37.2388	131.048
4412	452.786	226.393	117.794	15.7714	31.5428	287.678	26.4284	96.7241
4412.17	305.44	152.72	83.5816	11.0582	22.1164	188.684	17.1516	63.6388
4412.33	159.434	79.7171	45.4161	6.52321	13.0464	94.4485	9.36009	31.9475
4412.5	15.12	7.56	3.24	2.16	4.32	5.4	3	1.8
4412.67	12.6	6.3	2.7	1.8	3.6	4.5	2.5	1.5
4412.83	10.08	5.04	2.16	1.44	2.88	3.6	2	1.2
4413	7.56	3.78	1.62	1.08	2.16	2.7	1.5	0.9
4413.17	5.04	2.52	1.08	0.72	1.44	1.8	1	0.6
4413.33	2.52	1.26	0.54	0.36	0.72	0.9	0.5	0.3
4413.5	0	0	0	0	0	0	0	0
4413.67	0	0	0	0	0	0	0	0
4413.83	0	0	0	0	0	0	0	0
4414	0	0	0	0	0	0	0	0
4414.17	0	0	0	0	0	0	0	0
4414.33	0	0	0	0	0	0	0	0
4414.5	0	0	0	0	0	0	0	0
4414.67	0	0	0	0	0	0	0	0
4414.83	0	0	0	0	0	0	0	0
4415	0	0	0	0	0	0	0	0
4415.17	0	0	0	0	0	0	0	0
4415.33	0	0	0	0	0	0	0	0
4415.5	0	0	0	0	0	0	0	0
4415.67	0	0	0	0	0	0	0	0
4415.83	0	0	0	0	0	0	0	0
4416	0	0	0	0	0	0	0	0
4416.17	0	0	0	0	0	0	0	0
4416.33	0	0	0	0	0	0	0	0
4416.5	0	0	0	0	0	0	0	0
4416.67	0	0	0	0	0	0	0	0
4416.83	0	0	0	0	0	0	0	0
4417	0	0	0	0	0	0	0	0
4417.17	0	0	0	0	0	0	0	0
4417.33	0	0	0	0	0	0	0	0
4417.5	0	0	0	0	0	0	0	0
4417.67	0	0	0	0	0	0	0	0
4417.83	0	0	0	0	0	0	0	0
4418	0	0	0	0	0	0	0	0
4418.17	0	0	0	0	0	0	0	0
4418.33	0	0	0	0	0	0	0	0
4418.5	0	0	0	0	0	0	0	0
4418.67	2.52	1.26	0.54	0.36	0.72	0.9	0.5	0.3
4418.83	5.04	2.52	1.08	0.72	1.44	1.8	1	0.6
4419	7.56	3.78	1.62	1.08	2.16	2.7	1.5	0.9
4419.17	10.08	5.04	2.16	1.44	2.88	3.6	2	1.2
4419.33	12.6	6.3	2.7	1.8	3.6	4.5	2.5	1.5
4419.5	15.12	7.56	3.24	2.16	4.32	5.4	3	1.8
4419.67	45.36	22.68	9.72	6.48	12.96	16.2	9	5.4
4419.83	75.6	37.8	16.2	10.8	21.6	27	15	9
4420	149.419	74.7093	46.1772	35.1574	30.2595	37.8244	21.0813	12.6081
4420.17	193.691	96.8453	58.7548	47.0668	39.0529	48.8161	27.7204	16.272
4420.33	237.685	118.842	70.4837	59.3711	47.9245	59.9056	34.6853	19.9685
4420.5	281.384	140.692	81.3816	72.0296	56.8767	71.0959	41.9862	23.6986
4420.67	387.081	193.54	115.548	112.826	70.5367	88.1708	54.736	29.3903
4420.83	490.997	245.499	145.658	155.087	84.5564	105.696	68.9849	35.2318
4421	591.407	295.703	170.528	198.255	98.9442	123.68	84.7674	41.2268
4421.17	689.474	344.737	191.421	242.213	113.707	142.134	102.112	47.3779
4421.33	785.428	392.714	208.674	286.841	128.85	161.063	121.042	53.6875
4421.5	879.426	439.713	222.638	331.938	144.378	180.472	141.573	60.1574
4421.67	941.978	470.989	222.811	334.333	171.037	213.797	162.655	71.2655
4421.83	1002.75	501.377	222.188	336.035	197.569	246.961	183.203	82.3204
4422	1065.64	532.821	224.598	337.115	223.969	279.961	203.204	93.3205
4422.17	1130.47	565.235	229.799	337.641	250.235	312.794	222.645	104.265
4422.33	1197.05	598.525	237.545	337.686	276.364	345.455	241.516	115.152
4422.5	1265.2	632.601	247.581	337.324	302.354	377.943	259.808	125.981
4422.67	1323.18	661.592	256.111	339.506	323.363	404.203	275.678	134.734
4422.83	1382.3	691.151	266.268	341.389	344.287	430.358	291.194	143.453
4423	2048.31	1024.16	277.959	857.542	456.406	456.406	306.351	152.135
4423.17	2116.77	1058.38	290.996	861.083	482.345	482.345	321.149	160.782
4423.33	2185.75	1092.88	305.191	864.211	508.175	508.175	335.583	169.392
4423.5	2255.2	1127.6	320.338	867.035	533.933	533.897	349.656	177.966
4423.67	2257.67	1128.83	321.006	865.552	536.101	535.011	353.368	178.337
4423.83	2260.66	1130.33	321.678	863.14	539.717	536.129	357.097	178.71
4424	2264.27	1132.13	322.35	859.921	544.746	537.251	360.835	179.084
4424.17	2268.44	1134.22	323.023	855.906	551.142	538.372	364.573	179.457
4424.33	2273.13	1136.57	323.695	851.1	558.847	539.491	368.304	179.83
4424.5	2277.79	1138.89	324.364	845.078	567.739	540.606	372.021	180.202
4424.67	2160.61	1080.31	313.926	770.586	552.892	523.21	353.199	174.403
4424.83	2043.88	1021.94	303.326	699.192	535.82	505.543	333.475	168.514
4425	1927.46	963.729	292.57	631.138	516.135	487.616	312.887	162.539
4425.17	1811.26	905.629	281.666	566.634	493.516	469.443	291.476	156.481
4425.33	1694.96	847.48	270.622	505.595	467.708	451.036	269.287	150.345
4425.5	1579.15	789.576	259.446	448.766	438.53	432.41	246.367	144.137
4425.67	1887.25	943.627	282.365	603.396	530.886	470.608	316.193	156.869
4425.83	2189.83	1094.91	305.69	740.933	633.721	509.483	388.275	169.828
4426	2485.62	1242.81	329.384	861.465	745.797	548.973	462.409	182.991
4426.17	2765.66	1382.83	353.409	956.299	866.931	589.016	538.385	196.339
4426.33	3035.53	1517.77	377.727	1031.83	996.433	629.546	615.985	209.849
4426.5	3295.85	1647.92	402.297	1089.59	1133.46	670.496	694.985	223.499
4426.67	2984.15	1492.08	376.608	936.27	1043.59	627.68	628.099	209.227
4426.83	2675.8	1337.9	350.612	795.509	945.326	584.353	559.51	194.784
4427	2376.67	1188.34	324.345	672.378	839.378	540.575	489.415	180.192
4427.17	2091.41	1045.7	297.843	570.586	726.575	496.405	418.015	165.468
4427.33	1817.95	908.977	271.144	487.05	607.854	451.906	345.52	150.635
4427.5	1554.15	777.074	244.285	418.475	484.246	407.141	272.138	135.714
4427.67	1808.29	904.144	284.335	481.789	568.273	473.891	318.804	157.964
4427.83	2062.35	1031.17	324.386	544.973	652.346	540.643	365.477	180.214
4428	2316.86	1158.43	364.431	608.822	736.222	607.385	412.114	202.462
4428.17	2572.35	1286.18	404.461	674.135	819.656	674.102	458.674	224.701
4428.33	2829.36	1414.68	444.471	740.784	902.404	741.705	505.113	251.248
4428.5	3088.41	1544.21	484.451	807.418	984.228	812.314	551.392	279.59
4428.67	2911.39	1455.7	453.407	755.678	934.683	767.625	524.759	268.398
4428.83	2736.58	1368.29	422.331	703.886	884.162	726.2	497.951	257.423
4429	2563.6	1281.8	391.223	652.038	832.634	687.703	470.959	246.65
4429.17	2392.19	1196.09	360.08	600.133	780.077	651.898	443.775	236.063
4429.33	2222.83	1111.42	328.9	548.166	726.482	619.287	416.388	225.647
4429.5	2055.62	1027.81	297.682	496.137	671.847	589.95	388.79	215.385
4429.67	2151.58	1075.79	312.627	521.044	683.989	633.918	397.648	227.867
4429.83	2242.66	1121.33	327.561	545.936	696.012	673.147	406.451	239.831
4430	2333.36	1166.68	342.49	570.816	708.046	712.004	415.221	251.279
4430.17	2423.64	1211.82	357.415	595.692	720.217	750.317	423.974	262.217
4430.33	2513.47	1256.73	372.342	620.569	732.64	787.917	432.73	272.649
4430.5	2600.03	1300.02	387.272	645.453	745.426	821.884	441.508	282.584
4430.67	2231.42	1115.71	332.528	554.214	631.097	713.578	375.712	244.434
4430.83	1859.64	929.818	277.883	463.139	518.082	600.532	310.461	204.848
4431	1486.75	743.376	223.346	372.244	408.449	482.713	245.811	163.893
4431.17	1112.93	556.463	168.927	281.545	302.425	360.029	181.817	121.647
4431.33	583.374	291.687	114.635	76.4237	159.942	232.372	118.53	78.1876
4431.5	282.24	141.12	60.48	40.32	80.64	100.8	56	33.6
4431.67	571.66	285.83	88.4844	58.9896	133.12	291.066	119.08	98.6862
4431.83	864.258	432.129	116.006	77.3373	178.396	492.52	179.477	166.776
4432	1159.25	579.624	143.022	95.3478	217.064	703.814	237.065	237.565
4432.17	1455.27	727.636	169.511	113.007	250.175	922.579	291.727	310.738
4432.33	2019.16	1009.58	195.454	325.757	349.242	1148.71	343.357	385.97
4432.5	2353.03	1176.51	220.835	368.059	382.924	1381.21	391.862	462.926
4432.67	2276.1	1138.05	207.733	346.221	351.786	1370.36	369.904	458.137
4432.83	2201.14	1100.57	194.641	324.401	325.131	1356.96	348.004	452.544
4433	2125.53	1062.76	181.821	302.605	302.605	1338.49	326.184	446.164
4433.17	2050.05	1025.02	171.324	280.841	280.841	1317.04	304.468	439.014
4433.33	1975.16	987.579	163.594	259.113	259.113	1293.34	282.878	431.112
4433.5	1900.91	950.457	158.615	237.43	237.43	1267.44	261.435	422.479
4433.67	1882.3	941.15	161.68	223.517	223.517	1273.59	247.556	424.529
4433.83	1864.89	932.445	168.046	209.518	209.518	1277.81	233.394	425.936
4434	1847.67	923.836	176.771	195.439	195.439	1280.02	218.965	426.674
4434.17	1831.2	915.599	188.473	181.286	181.286	1280.15	204.285	426.718
4434.33	1815.7	907.849	203.441	167.062	167.062	1278.13	189.373	426.045
4434.5	1801.22	900.61	221.777	152.775	152.775	1273.89	174.248	424.632
4434.67	1737.94	868.97	237.794	141.254	141.254	1217.64	156.68	405.879
4434.83	1566.71	783.354	250.766	51.9844	103.969	1159.99	139.87	386.663
4435	1504.22	752.112	260.355	47.5594	95.1188	1101.19	123.828	367.064
4435.17	1440.62	720.312	269.453	43.2276	86.4552	1041.49	108.563	347.163
4435.33	1375.96	687.981	277.871	38.9897	77.9794	981.122	94.0808	327.041
4435.5	1310.29	655.147	285.421	34.846	69.692	920.336	80.3834	306.779
4435.67	1091.93	545.964	255.223	28.3044	56.6089	751.792	60.8702	251.229
4435.83	870.517	435.258	216.307	22.0667	44.1334	588.009	43.8891	197.11
4436	650.027	325.013	171.462	16.1259	32.2519	430.187	29.3827	144.679
4436.17	431.063	215.532	120.537	10.4741	20.9482	279.104	17.2843	94.1893
4436.33	214.204	107.102	63.4134	5.10219	10.2044	135.484	7.5182	45.8844
4436.5	0	0	0	0	0	0	0	0
4436.67	0	0	0	0	0	0	0	0
4436.83	0	0	0	0	0	0	0	0
4437	0	0	0	0	0	0	0	0
4437.17	0	0	0	0	0	0	0	0
4437.33	0	0	0	0	0	0	0	0
4437.5	0	0	0	0	0	0	0	0
4437.67	0	0	0	0	0	0	0	0
4437.83	0	0	0	0	0	0	0	0
4438	0	0	0	0	0	0	0	0
4438.17	0	0	0	0	0	0	0	0
4438.33	0	0	0	0	0	0	0	0
4438.5	0	0	0	0	0	0	0	0
4438.67	0	0	0	0	0	0	0	0
4438.83	0	0	0	0	0	0	0	0
4439	0	0	0	0	0	0	0	0
4439.17	0	0	0	0	0	0	0	0
4439.33	0	0	0	0	0	0	0	0
4439.5	0	0	0	0	0	0	0	0
4439.67	0	0	0	0	0	0	0	0
4439.83	0	0	0	0	0	0	0	0
4440	0	0	0	0	0	0	0	0
4440.17	0	0	0	0	0	0	0	0
4440.33	0	0	0	0	0	0	0	0
4440.5	0	0	0	0	0	0	0	0
4440.67	0	0	0	0	0	0	0	0
4440.83	0	0	0	0	0	0	0	0
4441	0	0	0	0	0	0	0	0
4441.17	0	0	0	0	0	0	0	0
4441.33	0	0	0	0	0	0	0	0
4441.5	0	0	0	0	0	0	0	0
4441.67	0	0	0	0	0	0	0	0
4441.83	0	0	0	0	0	0	0	0
4442	0	0	0	0	0	0	0	0
4442.17	0	0	0	0	0	0	0	0
4442.33	0	0	0	0	0	0	0	0
4442.5	0	0	0	0	0	0	0	0
4442.67	2.52	1.26	0.54	0.36	0.72	0.9	0.5	0.3
4442.83	5.04	2.52	1.08	0.72	1.44	1.8	1	0.6
4443	7.56	3.78	1.62	1.08	2.16	2.7	1.5	0.9
4443.17	10.08	5.04	2.16	1.44	2.88	3.6	2	1.2
4443.33	12.6	6.3	2.7	1.8	3.6	4.5	2.5	1.5
4443.5	15.12	7.56	3.24	2.16	4.32	5.4	3	1.8
4443.67	52.08	26.04	11.16	7.44	14.88	18.6	10.3333	6.2
4443.83	89.04	44.52	19.08	12.72	25.44	31.8	17.6667	10.6
4444	251.687	125.843	94.7854	75.8312	36.0312	45.039	25.13	15.013
4444.17	329.121	164.561	120.293	103.021	47.0256	58.782	34.2733	19.594
4444.33	405.756	202.878	143.351	131.352	58.2458	72.8072	44.3573	24.2691
4444.5	481.54	240.77	164.009	160.709	69.6987	87.1234	55.4114	29.0411
4444.67	533.813	266.906	176.563	186.104	76.0646	95.0808	63.6024	31.6936
4444.83	584.544	292.272	186.418	212.162	82.651	103.314	72.7124	34.4379
4445	631.838	315.919	192.273	238.275	89.4617	111.827	82.7571	37.2757
4445.17	677.843	338.921	196.124	264.594	96.4998	120.625	93.749	40.2082
4445.33	722.762	361.381	198.181	291.104	103.767	129.709	105.697	43.2364
4445.5	766.694	383.347	198.662	317.685	111.265	139.082	118.606	46.3606
4445.67	882.03	441.015	215.217	377.485	128.59	160.738	144.126	53.5793
4445.83	990.324	495.162	223.255	437.557	146.45	183.062	171.875	61.0208
4446	1096.32	548.16	227.803	497.615	164.845	206.056	201.853	68.6854
4446.17	1200.7	600.348	229.831	557.374	183.774	229.717	234.057	76.5724
4446.33	1304.12	652.059	230.296	616.547	203.233	254.041	268.471	84.6805
4446.5	2475.3	1237.65	230.14	1687.12	279.022	279.022	305.073	93.0073
4446.67	2517.48	1258.74	219.124	1711.68	293.341	293.341	325.303	97.7804
4446.83	2560.46	1280.23	211.578	1733.43	307.727	307.727	345.758	102.576
4447	2604.46	1302.23	207.828	1752.28	322.173	322.173	366.41	107.391
4447.17	2649.41	1324.71	207.909	1768.16	336.669	336.669	387.231	112.223
4447.33	2695.25	1347.62	211.83	1781	351.208	351.208	408.194	117.069
4447.5	2741.93	1370.97	219.468	1790.73	365.956	365.781	429.268	121.927
4447.67	2826.5	1413.25	240.183	1781.03	404.98	400.306	456.019	133.435
4447.83	2913.41	1456.7	260.805	1768.4	449.529	434.675	482.249	144.892
4448	3003.08	1501.54	281.33	1753.81	499.054	468.884	507.945	156.295
4448.17	3095.15	1547.58	301.757	1737.47	552.998	502.928	533.093	167.643
4448.33	3189.28	1594.64	322.083	1719.6	610.794	536.805	557.682	178.935
4448.5	3283.4	1641.7	342.307	1698.96	671.622	570.511	581.703	190.17
4448.67	3244.02	1622.01	359.779	1568.19	716.417	599.631	577.103	199.877
4448.83	3205.98	1602.99	376.816	1444.83	756.305	628.027	570.09	209.342
4449	3168.86	1584.43	393.437	1329.52	790.168	655.728	560.758	218.576
4449.17	3132.34	1566.17	409.657	1222.87	817.05	682.762	549.205	227.587
4449.33	3094.26	1547.13	425.498	1123.43	836.169	709.163	535.542	236.388
4449.5	3056.14	1528.07	440.979	1033.28	846.921	734.965	519.883	244.988
4449.67	3105.5	1552.75	434.363	1067.05	880.147	723.939	543.128	241.313
4449.83	3148.96	1574.48	427.948	1091.27	916.491	713.246	567.485	237.749
4450	3187.8	1593.9	421.711	1106.05	957.19	702.851	592.837	234.284
4450.17	3212.87	1606.44	415.631	1101.93	1002.59	692.718	619.06	230.906
4450.33	3232.33	1616.16	409.685	1087.62	1052.21	682.809	646.029	227.603
4450.5	3246.83	1623.41	403.851	1064.38	1105.51	673.085	673.615	224.362
4450.67	3042.87	1521.44	390.957	948.495	1051.82	651.596	629.485	217.199
4450.83	2840.44	1420.22	377.816	841.549	991.387	629.693	583.975	209.898
4451	2644.22	1322.11	364.452	747.635	924.712	607.42	537.233	202.473
4451.17	2459.4	1229.7	350.894	671.277	852.401	584.824	489.413	194.941
4451.33	2284.43	1142.21	337.171	610.162	775.143	561.951	440.671	187.317
4451.5	2117.6	1058.8	323.31	561.739	693.704	538.851	391.168	179.617
4451.67	1932.18	966.09	297.559	507.354	631.334	495.932	354.774	165.311
4451.83	1749.77	874.886	271.765	457.445	567.619	452.942	318.141	150.981
4452	1569.67	784.833	245.939	410.964	502.866	409.898	281.326	136.633
4452.17	1391.14	695.569	220.09	366.835	437.397	366.816	244.386	122.272
4452.33	1213.46	606.728	194.228	323.714	371.539	323.974	207.38	109.151
4452.5	1035.89	517.945	168.366	280.61	305.628	281.287	170.365	94.9954
4452.67	1327.13	663.563	203.933	339.889	437.034	346.271	245.462	122.162
4452.83	1623.87	811.936	239.422	399.037	565.972	419.441	320.123	153.936
4453	1927.85	963.924	274.799	457.999	691.432	503.617	394.163	190.246
4453.17	2240.21	1120.1	310.032	516.72	812.462	600.995	467.399	231.003
4453.33	2563.13	1281.57	345.087	575.145	928.18	714.722	539.651	276.103
4453.5	2898.38	1449.19	379.933	633.222	1037.78	847.437	610.741	325.422
4453.67	2812.77	1406.38	369.704	616.174	968.472	858.416	574.745	321.754
4453.83	2713.07	1356.53	359.529	599.215	901.086	853.235	539.051	315.325
4454	2609.58	1304.79	349.428	582.38	836.17	841.606	503.766	306.193
4454.17	2502.08	1251.04	339.419	565.699	774.216	822.75	468.996	294.429
4454.33	2390.34	1195.17	329.522	549.203	715.659	795.952	434.844	280.112
4454.5	2270.63	1135.32	319.754	532.923	660.869	757.088	401.41	263.331
4454.67	2232.38	1116.19	311.142	518.571	638.123	764.541	392.735	265.006
4454.83	2191.63	1095.82	302.495	504.158	612.523	772.456	383.859	266.615
4455	2150.35	1075.18	293.811	489.685	586.09	780.766	374.782	268.139
4455.17	2108.87	1054.44	285.091	475.151	559.592	789.04	365.504	269.564
4455.33	2064.97	1032.48	276.335	460.558	533.189	794.885	356.026	270.871
4455.5	2021.11	1010.56	267.543	445.905	507.046	800.62	346.349	272.045
4455.67	1879.37	939.684	253.321	422.202	464.593	739.252	316.506	250.09
4455.83	1737.53	868.766	239.259	398.765	426.397	673.11	287.55	226.754
4456	1595.07	797.534	225.367	375.611	391.974	602.116	259.537	202.144
4456.17	1452.06	726.032	211.653	352.755	361.151	526.505	232.515	176.372
4456.33	1309.34	654.67	198.126	330.21	333.655	447.349	206.533	149.551
4456.5	1166.63	583.314	184.794	307.99	308.861	364.983	181.632	121.802
4456.67	1123.11	561.556	177.337	295.561	295.902	354.312	174.371	118.18
4456.83	1079.72	539.861	169.877	283.128	283.179	343.539	167.093	114.525
4457	1036.31	518.153	162.426	270.69	270.69	332.5	159.799	110.833
4457.17	992.919	496.46	155.108	258.247	258.247	321.317	152.49	107.106
4457.33	752.944	376.472	147.964	98.3199	196.64	310.021	145.165	103.34
4457.5	719.628	359.814	141.003	93.3393	186.679	298.607	137.827	99.5356
4457.67	635.527	317.763	125.553	82.7646	165.529	261.68	121.371	87.2268
4457.83	551.245	275.622	110.033	72.2129	144.426	224.573	105.107	74.8578
4458	466.72	233.36	94.3187	61.6844	123.369	187.349	89.0364	62.4495
4458.17	381.961	190.98	78.3535	51.1794	102.359	150.069	73.1613	50.0231
4458.33	296.955	148.477	62.0623	40.6979	81.3958	112.799	57.4824	37.5995
4458.5	211.68	105.84	45.36	30.24	60.48	75.6	42	25.2
4458.67	194.88	97.44	41.76	27.84	55.68	69.6	38.6667	23.2
4458.83	178.08	89.04	38.16	25.44	50.88	63.6	35.3333	21.2
4459	161.28	80.64	34.56	23.04	46.08	57.6	32	19.2
4459.17	144.48	72.24	30.96	20.64	41.28	51.6	28.6667	17.2
4459.33	127.68	63.84	27.36	18.24	36.48	45.6	25.3333	15.2
4459.5	110.88	55.44	23.76	15.84	31.68	39.6	22	13.2
4459.67	92.4	46.2	19.8	13.2	26.4	33	18.3333	11
4459.83	73.92	36.96	15.84	10.56	21.12	26.4	14.6667	8.8
4460	55.44	27.72	11.88	7.92	15.84	19.8	11	6.6
4460.17	36.96	18.48	7.92	5.28	10.56	13.2	7.33333	4.4
4460.33	18.48	9.24	3.96	2.64	5.28	6.6	3.66667	2.2
4460.5	0	0	0	0	0	0	0	0
4460.67	0	0	0	0	0	0	0	0
4460.83	0	0	0	0	0	0	0	0
4461	0	0	0	0	0	0	0	0
4461.17	0	0	0	0	0	0	0	0
4461.33	0	0	0	0	0	0	0	0
4461.5	0	0	0	0	0	0	0	0
4461.67	0	0	0	0	0	0	0	0
4461.83	0	0	0	0	0	0	0	0
4462	0	0	0	0	0	0	0	0
4462.17	0	0	0	0	0	0	0	0
4462.33	0	0	0	0	0	0	0	0
4462.5	0	0	0	0	0	0	0	0
4462.67	0	0	0	0	0	0	0	0
4462.83	0	0	0	0	0	0	0	0
4463	0	0	0	0	0	0	0	0
4463.17	0	0	0	0	0	0	0	0
4463.33	0	0	0	0	0	0	0	0
4463.5	0	0	0	0	0	0	0	0
4463.67	0	0	0	0	0	0	0	0
4463.83	0	0	0	0	0	0	0	0
4464	0	0	0	0	0	0	0	0
4464.17	0	0	0	0	0	0	0	0
4464.33	0	0	0	0	0	0	0	0
4464.5	0	0	0	0	0	0	0	0
4464.67	0	0	0	0	0	0	0	0
4464.83	0	0	0	0	0	0	0	0
4465	0	0	0	0	0	0	0	0
4465.17	0	0	0	0	0	0	0	0
4465.33	0	0	0	0	0	0	0	0
4465.5	0	0	0	0	0	0	0	0
4465.67	0	0	0	0	0	0	0	0
4465.83	0	0	0	0	0	0	0	0
4466	0	0	0	0	0	0	0	0
4466.17	0	0	0	0	0	0	0	0
4466.33	0	0	0	0	0	0	0	0
4466.5	0	0	0	0	0	0	0	0
4466.67	0	0	0	0	0	0	0	0
4466.83	0	0	0	0	0	0	0	0
4467	0	0	0	0	0	0	0	0
4467.17	0	0	0	0	0	0	0	0
4467.33	0	0	0	0	0	0	0	0
4467.5	0	0	0	0	0	0	0	0
4467.67	27.72	13.86	5.94	3.96	7.92	9.9	5.5	3.3
4467.83	55.44	27.72	11.88	7.92	15.84	19.8	11	6.6
4468	165.232	82.616	62.0903	49.6748	23.7631	29.7039	16.5128	9.90129
4468.17	219.384	109.692	79.5144	67.9566	31.9613	39.9516	23.1719	13.3172
4468.33	273.015	136.507	95.3372	86.9865	40.307	50.3838	30.4459	16.7946
4468.5	326.091	163.046	109.592	106.688	48.805	61.0063	38.3541	20.3354
4468.67	450.027	225.014	153.015	164.412	58.9334	73.6667	50.5556	24.5556
4468.83	571.125	285.562	190.114	224.372	69.6171	87.0214	65.0713	29.0071
4469	686.616	343.308	219.033	285.628	80.869	101.086	81.954	33.6954
4469.17	798.552	399.276	241.883	348.095	92.6994	115.874	101.247	38.6248
4469.33	907.268	453.634	259.184	411.571	105.117	131.396	122.986	43.7986
4469.5	1013.01	506.505	271.478	475.746	118.127	147.659	147.196	49.2196
4469.67	1064.88	532.438	262.867	487.678	139.702	174.628	169.593	58.2094
4469.83	1112.43	556.217	250.783	498.79	161.272	201.59	191.966	67.1967
4470	1162.05	581.026	241.597	509.086	182.831	228.539	214.297	76.1797
4470.17	1213.7	606.852	235.287	518.57	204.376	255.47	236.567	85.1567
4470.33	1267.35	633.675	231.819	527.252	225.902	282.378	258.759	94.1259
4470.5	1322.95	661.473	231.145	535.14	247.405	309.257	280.855	103.086
4470.67	1340.62	670.308	224.987	531.706	259.521	324.401	294.671	108.134
4470.83	2219.72	1109.86	222.005	1318.86	339.429	339.429	308.097	113.143
4471	2237.57	1118.79	222.156	1306.74	354.337	354.337	321.122	118.112
4471.17	2256.49	1128.25	225.209	1293.04	369.12	369.12	333.732	123.04
4471.33	2276.36	1138.18	230.924	1277.88	383.775	383.775	345.917	127.925
4471.5	2297.09	1148.54	238.98	1261.38	398.424	398.3	357.667	132.767
4471.67	2374.04	1187.02	260.535	1242.23	437.047	434.225	377.417	144.742
4471.83	2452.51	1226.26	281.943	1222.23	478.434	469.905	396.35	156.635
4472	2532.77	1266.39	303.205	1202.31	521.915	505.342	414.472	168.447
4472.17	2614.46	1307.23	324.323	1182.75	566.845	540.538	431.792	180.179
4472.33	2697.24	1348.62	345.298	1163.83	612.607	575.497	448.321	191.832
4472.5	2780.04	1390.02	366.134	1145.22	658.47	610.223	464.075	203.408
4472.67	2664.55	1332.28	361.888	1043.02	656.492	603.146	445.488	201.049
4472.83	2549.77	1274.88	357.374	945.857	650.916	595.623	425.409	198.541
4473	2435.48	1217.74	352.602	854.113	641.091	587.671	403.902	195.89
4473.17	2321.51	1160.76	347.586	768.146	626.472	579.31	381.032	193.103
4473.33	2207.28	1103.64	342.337	687.749	606.63	570.562	356.874	190.187
4473.5	2093.59	1046.79	336.871	614.014	581.251	561.451	331.502	187.15
4473.67	2147.07	1073.53	347.152	622.622	598.705	578.587	339.458	192.862
4473.83	2200.25	1100.12	357.413	631.931	615.214	595.688	347.293	198.563
4474	2253.56	1126.78	367.653	641.949	631.205	612.755	355.016	204.252
4474.17	2306.59	1153.29	377.874	652.168	646.754	629.79	362.633	209.93
4474.33	2360.05	1180.02	388.078	663.302	661.873	646.797	370.155	215.599
4474.5	2413.97	1206.99	398.266	675.352	676.579	663.776	377.588	221.259
4474.67	2307.3	1153.65	380.649	644.379	647.855	634.416	361.385	211.472
4474.83	2200.44	1100.22	363.031	613.275	619.078	605.051	345.17	201.684
4475	2093.46	1046.73	345.41	582.127	590.245	575.683	328.942	191.894
4475.17	1986.62	993.312	327.786	551.179	561.349	546.31	312.7	182.103
4475.33	1879.92	939.959	310.16	520.439	532.386	516.934	296.446	172.311
4475.5	1773.34	886.669	292.532	489.9	503.352	487.553	280.177	162.518
4475.67	1747.41	873.706	288.478	482.092	496.047	480.796	275.986	160.265
4475.83	1721.71	860.855	284.42	474.614	488.643	474.033	271.777	158.011
4476	1696.21	848.103	280.36	467.429	481.151	467.266	267.553	155.755
4476.17	1670.87	835.436	276.297	460.499	473.581	460.495	263.315	153.498
4476.33	1645.68	822.84	272.232	453.72	465.945	453.783	259.066	151.551
4476.5	1620.61	810.303	268.165	446.942	458.256	447.242	254.807	149.632
4476.67	1505.6	752.802	249.132	415.219	425.377	415.876	236.564	139.324
4476.83	1390.65	695.325	230.097	383.495	392.477	384.579	218.317	128.948
4477	1275.69	637.843	211.063	351.771	359.573	353.28	200.07	118.503
4477.17	1160.68	580.338	192.028	320.047	326.681	321.92	181.824	107.991
4477.33	1045.61	522.806	172.995	288.325	293.815	290.476	163.582	97.4112
4477.5	724.305	362.152	153.963	102.642	208.793	258.908	145.347	86.7659
4477.67	887.305	443.652	183	122	261.973	320.331	184.168	109.036
4477.83	1052.81	526.404	211.977	141.318	313.743	385.771	222.648	132.55
4478	1221.09	610.546	240.883	160.588	363.946	455.674	260.737	157.267
4478.17	1392.31	696.155	269.71	179.806	412.455	530.339	298.386	183.137
4478.33	1979.85	989.924	298.449	497.414	573.956	610.029	335.547	210.109
4478.5	2194.94	1097.47	327.092	545.153	630.001	692.699	372.175	238.126
4478.67	2321.41	1160.7	331.918	553.197	661.656	774.634	401.49	267.366
4478.83	2448.4	1224.2	336.501	560.835	685.279	865.781	429.451	298.978
4479	2576.23	1288.11	340.822	568.037	701.304	966.066	455.957	332.81
4479.17	2705.25	1352.63	344.865	574.774	710.842	1074.77	480.913	368.694
4479.33	2831.23	1415.61	348.612	581.02	714.36	1187.24	504.232	406.46
4479.5	2957.58	1478.79	352.049	586.749	712.46	1306.32	525.829	445.927
4479.67	2953.43	1476.72	329.056	548.427	665.418	1410.53	527.257	480.154
4479.83	2950.36	1475.18	305.651	509.419	613.129	1522.16	526.396	516.171
4480	2946.38	1473.19	281.819	469.699	555.922	1638.94	523.162	553.73
4480.17	2939.66	1469.83	257.546	429.244	495.047	1757.82	517.479	592.575
4480.33	2934.95	1467.48	232.821	388.034	433.311	1880.78	509.28	632.444
4480.5	2933.21	1466.6	207.632	346.053	372.533	2006.99	498.508	673.07
4480.67	2784.03	1392.01	196.516	327.527	337.423	1922.56	457.588	642.884
4480.83	2637.05	1318.53	185.689	309.482	310.999	1830.88	418.274	610.543
4481	2487.97	1243.99	175.371	291.942	291.942	1728.72	380.641	576.239
4481.17	2338.47	1169.24	168.107	274.927	274.927	1620.51	344.757	540.17
4481.33	2188.6	1094.3	164.075	258.456	258.456	1507.62	310.686	502.539
4481.5	2038.23	1019.11	162.481	242.544	242.544	1390.66	278.481	463.553
4481.67	1858.06	929.032	159.356	222.507	222.507	1253.69	244.19	417.898
4481.83	1676.76	838.38	156.64	203.12	203.12	1113.88	212.065	371.293
4482	1493.3	746.652	152.588	184.392	184.392	971.933	182.139	323.978
4482.17	1307.85	653.926	146.617	166.331	166.331	828.573	154.437	276.191
4482.33	1001.26	500.63	138.002	59.5771	119.154	684.526	128.975	228.175
4482.5	824.962	412.481	125.772	52.8917	105.783	540.515	105.764	180.172
4482.67	713.043	356.522	117.361	46.7146	93.4291	455.538	89.288	151.846
4482.83	598.659	299.33	105.602	40.6837	81.3675	371.006	74.0311	123.669
4483	481.965	240.983	90.2647	34.7984	69.5969	287.305	59.9869	95.7684
4483.17	364.215	182.107	72.2229	29.0574	58.1147	204.82	47.1446	68.2733
4483.33	245.521	122.761	51.2173	23.4587	46.9174	123.928	35.4889	41.3093
4483.5	126	63	27	18	36	45	25	15
4483.67	105	52.5	22.5	15	30	37.5	20.8333	12.5
4483.83	84	42	18	12	24	30	16.6667	10
4484	63	31.5	13.5	9	18	22.5	12.5	7.5
4484.17	42	21	9	6	12	15	8.33333	5
4484.33	21	10.5	4.5	3	6	7.5	4.16667	2.5
4484.5	0	0	0	0	0	0	0	0
4484.67	0	0	0	0	0	0	0	0
4484.83	0	0	0	0	0	0	0	0
4485	0	0	0	0	0	0	0	0
4485.17	0	0	0	0	0	0	0	0
4485.33	0	0	0	0	0	0	0	0
4485.5	0	0	0	0	0	0	0	0
4485.67	0	0	0	0	0	0	0	0
4485.83	0	0	0	0	0	0	0	0
4486	0	0	0	0	0	0	0	0
4486.17	0	0	0	0	0	0	0	0
4486.33	0	0	0	0	0	0	0	0
4486.5	0	0	0	0	0	0	0	0
4486.67	0	0	0	0	0	0	0	0
4486.83	0	0	0	0	0	0	0	0
4487	0	0	0	0	0	0	0	0
4487.17	0	0	0	0	0	0	0	0
4487.33	0	0	0	0	0	0	0	0
4487.5	0	0	0	0	0	0	0	0
4487.67	0	0	0	0	0	0	0	0
4487.83	0	0	0	0	0	0	0	0
4488	0	0	0	0	0	0	0	0
4488.17	0	0	0	0	0	0	0	0
4488.33	0	0	0	0	0	0	0	0
4488.5	0	0	0	0	0	0	0	0
4488.67	0	0	0	0	0	0	0	0
4488.83	0	0	0	0	0	0	0	0
4489	0	0	0	0	0	0	0	0
4489.17	0	0	0	0	0	0	0	0
4489.33	0	0	0	0	0	0	0	0
4489.5	0	0	0	0	0	0	0	0
4489.67	0	0	0	0	0	0	0	0
4489.83	0	0	0	0	0	0	0	0
4490	0	0	0	0	0	0	0	0
4490.17	0	0	0	0	0	0	0	0
4490.33	0	0	0	0	0	0	0	0
4490.5	0	0	0	0	0	0	0	0
4490.67	0	0	0	0	0	0	0	0
4490.83	0	0	0	0	0	0	0	0
4491	0	0	0	0	0	0	0	0
4491.17	0	0	0	0	0	0	0	0
4491.33	0	0	0	0	0	0	0	0
4491.5	0	0	0	0	0	0	0	0
4491.67	27.72	13.86	5.94	3.96	7.92	9.9	5.5	3.3
4491.83	55.44	27.72	11.88	7.92	15.84	19.8	11	6.6
4492	83.16	41.58	17.82	11.88	23.76	29.7	16.5	9.9
4492.17	361.649	180.825	152.62	136.412	32.2746	40.3432	24.4774	13.4477
4492.33	449.261	224.63	181.392	175.245	41.1657	51.4571	34.0238	17.1524
4492.5	535.594	267.797	206.537	215.636	50.4091	63.0113	45.0377	21.0038
4492.67	562.832	281.416	197.081	216.001	66.5555	83.1944	58.9814	27.7315
4492.83	589.659	294.829	188.416	215.415	82.59	103.238	72.4582	34.4125
4493	614.946	307.473	179.807	213.498	98.5072	123.134	85.4465	41.0447
4493.17	641.274	320.637	173.324	210.77	114.302	142.878	97.9262	47.626
4493.33	668.684	334.342	168.872	207.377	129.971	162.464	109.88	54.1546
4493.5	697.129	348.565	166.347	203.386	145.51	181.887	121.291	60.6291
4493.67	803.007	401.503	189.203	282.188	147.385	184.231	138.27	61.4103
4493.83	901.008	450.504	201.36	361.955	150.086	187.607	158.69	62.5357
4494	994.166	497.083	206.285	442.245	153.616	192.02	182.566	64.0066
4494.17	1083.54	541.772	205.483	522.614	157.977	197.471	209.902	65.8236
4494.33	1170.19	585.094	200.449	602.616	163.165	203.957	240.689	67.9855
4494.5	1255.12	627.559	192.665	681.807	169.176	211.47	274.901	70.4901
4494.67	1292.79	646.394	181.242	706.291	180.113	225.141	299.637	75.0471
4494.83	2474.68	1237.34	172.825	1823.7	239.078	239.078	325.259	79.6926
4495	2552.69	1276.35	168.026	1878.13	253.27	253.27	351.732	84.4232
4495.17	2631.32	1315.66	167.184	1928.72	267.705	267.705	379.016	89.235
4495.33	2710.54	1355.27	170.599	1975.2	282.371	282.371	407.07	94.1237
4495.5	2790.44	1395.22	178.353	2017.29	297.546	297.254	435.848	99.0848
4495.67	2850.96	1425.48	193.523	2006.26	328.631	322.538	461.795	107.513
4495.83	2913.46	1456.73	208.632	1990.38	366.725	347.721	487.402	115.907
4496	2979.24	1489.62	223.676	1971.41	411.363	372.793	512.645	124.264
4496.17	3047.95	1523.98	238.649	1949.51	462.045	397.749	537.496	132.583
4496.33	3119.24	1559.62	253.548	1924.86	518.246	422.58	561.933	140.86
4496.5	3190.83	1595.42	268.368	1896.26	578.927	447.279	585.931	149.093
4496.67	3080.54	1540.27	272.456	1742.59	611.396	454.094	574.48	151.365
4496.83	2971.68	1485.84	276.133	1594.88	640.439	460.222	560.739	153.407
4497	2863.78	1431.89	279.411	1453.78	664.895	465.685	544.783	155.228
4497.17	2756.45	1378.22	282.305	1319.89	683.743	470.508	526.694	156.836
4497.33	2646.43	1323.22	284.832	1190.77	696.112	474.719	506.564	158.24
4497.5	2534.32	1267.16	287.008	1067.68	701.29	478.347	484.49	159.449
4497.67	2520.23	1260.12	290.6	1016.74	728.553	484.334	486.113	161.445
4497.83	2500.52	1250.26	294.084	968.052	748.243	490.14	487.134	163.38
4498	2480.57	1240.28	297.463	921.732	765.603	495.771	487.57	165.257
4498.17	2452.67	1226.34	300.739	869.712	780.99	501.232	487.44	167.077
4498.33	2425.94	1212.97	303.917	821.177	794.318	506.529	486.763	168.843
4498.5	2401.25	1200.62	307.001	777.055	805.524	511.668	485.561	170.556
4498.67	2472.33	1236.16	327.334	761.856	837.582	545.557	496.023	181.852
4498.83	2541.75	1270.88	347.563	747.998	866.921	579.271	505.904	193.09
4499	2611.36	1305.68	367.694	737.214	893.626	612.824	515.246	204.275
4499.17	2686.09	1343.05	387.737	734.305	917.821	646.228	524.093	215.409
4499.33	2765.51	1382.75	407.698	738.653	939.658	679.497	532.49	226.499
4499.5	2849.01	1424.5	427.587	749.45	959.323	712.646	540.485	237.549
4499.67	2747.85	1373.93	408.439	704.159	954.526	680.731	536.603	226.91
4499.83	2648.06	1324.03	389.27	660.862	949.147	648.784	532.613	216.261
4500	2550.39	1275.2	370.072	620.712	942.822	616.787	528.455	205.596
4500.17	2455.6	1227.8	350.833	584.855	935.19	584.721	524.07	194.907
4500.33	2364.43	1182.22	331.542	552.569	925.9	554.424	519.398	193.442
4500.5	2277.64	1138.82	312.188	520.314	914.614	530.525	514.38	195.81
4500.67	2366.08	1183.04	312.176	520.294	983.809	549.803	555.979	214.86
4500.83	2463.93	1231.96	312.03	520.05	1048.79	583.061	596.834	238.445
4501	2572.06	1286.03	311.717	519.528	1108.58	632.237	636.761	266.472
4501.17	2690.77	1345.38	311.204	518.673	1162.29	698.599	675.578	298.831
4501.33	2823.07	1411.53	310.459	517.432	1209.11	786.062	713.107	335.397
4501.5	2970.67	1485.34	309.451	515.752	1248.33	897.141	749.174	376.023
4501.67	2934.59	1467.3	302.107	503.511	1172.47	956.503	715.038	385.681
4501.83	2876.59	1438.29	294.758	491.263	1097.12	993.441	680.875	392.482
4502	2815.69	1407.85	287.423	479.038	1022.93	1026.3	646.793	396.461
4502.17	2751.69	1375.84	280.122	466.869	950.518	1054.18	612.898	397.665
4502.33	2684.33	1342.17	272.873	454.788	880.437	1076.24	579.294	396.147
4502.5	2603.66	1301.83	265.695	442.826	813.201	1081.94	546.085	391.972
4502.67	2601.1	1300.55	260.258	433.764	777.355	1129.72	536.713	405.365
4502.83	2592.65	1296.33	254.738	424.564	735.331	1178.02	526.88	418.344
4503	2580.97	1290.48	249.137	415.228	689.965	1226.64	516.592	430.875
4503.17	2568.58	1284.29	243.455	405.759	644.979	1274.39	505.862	442.926
4503.33	2549.35	1274.67	237.696	396.159	600.799	1314.7	494.697	454.462
4503.5	2530.23	1265.11	231.86	386.433	557.851	1354.08	483.111	465.453
4503.67	2597.56	1298.78	225.312	375.52	526.383	1470.35	490.901	502.769
4503.83	2665.95	1332.97	218.427	364.045	491.92	1591.55	496.818	541.139
4504	2733.08	1366.54	211.195	351.992	454.67	1715.22	500.806	580.368
4504.17	2796.81	1398.41	203.607	339.345	415.488	1838.37	502.816	620.252
4504.33	2862.81	1431.4	195.655	326.092	377.356	1963.7	502.807	660.586
4504.5	2931.89	1465.94	187.333	312.222	341.809	2090.52	500.741	701.16
4504.67	2793.52	1396.76	177.684	296.141	307.524	2012.17	460.468	672.861
4504.83	2657.65	1328.83	168.318	280.53	282.456	1926.35	421.766	642.334
4505	2519.54	1259.77	159.403	265.414	265.414	1829.31	384.712	609.769
4505.17	2381.37	1190.68	153.662	250.813	250.813	1726.08	349.377	575.359
4505.33	2242.96	1121.48	151.542	236.748	236.748	1617.92	315.825	539.307
4505.5	2104.19	1052.09	152.267	223.234	223.234	1505.45	284.113	501.817
4505.67	2211.3	1105.65	161.916	212.288	212.288	1624.81	282.627	541.603
4505.83	2321.75	1160.87	178.091	200.674	200.674	1742.31	278.914	580.769
4506	2434.57	1217.29	200.548	188.395	188.395	1857.24	272.982	619.079
4506.17	2550.16	1275.08	230.349	175.454	175.454	1968.9	264.846	656.301
4506.33	2669.24	1334.62	268.921	161.86	161.86	2076.6	254.532	692.201
4506.5	2792.11	1396.06	317.213	147.622	147.622	2179.66	242.073	726.552
4506.67	2743.93	1371.96	355.051	133.797	133.797	2121.28	216.824	707.094
4506.83	2691.01	1345.51	390.91	120.191	120.191	2059.72	192.302	686.574
4507	2629.44	1314.72	420.61	106.811	106.811	1995.21	168.536	665.071
4507.17	2491.56	1245.78	451.172	37.4659	74.9318	1927.99	145.549	642.664
4507.33	2437.6	1218.8	482.384	32.3037	64.6074	1858.31	123.364	619.435
4507.5	2382.14	1191.07	514.026	27.2401	54.4801	1786.4	102	595.465
4507.67	1986.98	993.492	465.056	21.1863	42.3726	1458.37	72.3859	487.159
4507.83	1583.33	791.666	396.951	15.7591	31.5183	1139.1	47.9928	381.78
4508	1181.59	590.794	316.673	10.9444	21.8889	832.082	28.7036	279.863
4508.17	783	391.5	223.911	6.72579	13.4516	538.912	14.3815	181.928
4508.33	388.758	194.379	118.416	3.08458	6.16915	261.089	4.87147	88.4782
4508.5	0	0	0	0	0	0	0	0
4508.67	0	0	0	0	0	0	0	0
4508.83	0	0	0	0	0	0	0	0
4509	0	0	0	0	0	0	0	0
4509.17	0	0	0	0	0	0	0	0
4509.33	0	0	0	0	0	0	0	0
4509.5	0	0	0	0	0	0	0	0
4509.67	0	0	0	0	0	0	0	0
4509.83	0	0	0	0	0	0	0	0
4510	0	0	0	0	0	0	0	0
4510.17	0	0	0	0	0	0	0	0
4510.33	0	0	0	0	0	0	0	0
4510.5	0	0	0	0	0	0	0	0
4510.67	0	0	0	0	0	0	0	0
4510.83	0	0	0	0	0	0	0	0
4511	0	0	0	0	0	0	0	0
4511.17	0	0	0	0	0	0	0	0
4511.33	0	0	0	0	0	0	0	0
4511.5	0	0	0	0	0	0	0	0
4511.67	0	0	0	0	0	0	0	0
4511.83	0	0	0	0	0	0	0	0
4512	0	0	0	0	0	0	0	0
4512.17	0	0	0	0	0	0	0	0
4512.33	0	0	0	0	0	0	0	0
4512.5	0	0	0	0	0	0	0	0
4512.67	0	0	0	0	0	0	0	0
4512.83	0	0	0	0	0	0	0	0
4513	0	0	0	0	0	0	0	0
4513.17	0	0	0	0	0	0	0	0
4513.33	0	0	0	0	0	0	0	0
4513.5	0	0	0	0	0	0	0	0
4513.67	0	0	0	0	0	0	0	0
4513.83	0	0	0	0	0	0	0	0
4514	0	0	0	0	0	0	0	0
4514.17	0	0	0	0	0	0	0	0
4514.33	0	0	0	0	0	0	0	0
4514.5	0	0	0	0	0	0	0	0
4514.67	0	0	0	0	0	0	0	0
4514.83	0	0	0	0	0	0	0	0
4515	0	0	0	0	0	0	0	0
4515.17	0	0	0	0	0	0	0	0
4515.33	0	0	0	0	0	0	0	0
4515.5	0	0	0	0	0	0	0	0
4515.67	30.24	15.12	6.48	4.32	8.64	10.8	6	3.6
4515.83	60.48	30.24	12.96	8.64	17.28	21.6	12	7.2
4516	90.72	45.36	19.44	12.96	25.92	32.4	18	10.8
4516.17	263.183	131.592	98.998	85.741	34.8642	43.5802	25.2674	14.5267
4516.33	327.395	163.697	118.421	109.867	44.0473	55.0592	33.5305	18.3531
4516.5	390.883	195.442	135.784	134.88	53.4305	66.7882	42.6272	22.2627
4516.67	516.976	258.488	180.909	198.499	61.1412	76.4265	53.9215	25.4755
4516.83	639.733	319.866	218.781	264.622	69.4798	86.8497	67.8322	28.9499
4517	755.977	377.988	247.36	332.081	78.4604	98.0755	84.4183	32.6918
4517.17	868.285	434.143	269.152	400.92	88.0949	110.119	103.729	36.7062
4517.33	977.003	488.501	284.746	470.873	98.3926	122.991	125.802	40.9969
4517.5	1082.41	541.204	294.755	541.592	109.36	136.7	150.667	45.5667
4517.67	1125.73	562.866	283.513	579.363	116.824	146.03	170.1	48.6767
4517.83	1161.51	580.756	264.4	616.693	124.63	155.788	190.96	51.9293
4518	1197.39	598.696	245.248	653.399	132.776	165.97	213.233	55.3233
4518.17	1233.8	616.899	226.671	689.3	141.257	176.571	236.902	58.8569
4518.33	1271.13	635.565	209.265	724.215	150.067	187.584	261.946	62.5279
4518.5	1309.77	654.886	193.605	757.967	159.201	199.001	288.335	66.3335
4518.67	2539.78	1269.89	175.377	1952.67	205.868	205.868	311.226	68.6226
4518.83	2593.47	1296.73	160.67	2006.76	213.02	213.02	335.067	71.0067
4519	2647.88	1323.94	150.119	2056.87	220.446	220.446	359.819	73.4819
4519.17	2703.05	1351.52	144.083	2102.7	228.132	228.132	385.439	76.0439
4519.33	2758.93	1379.47	142.877	2143.93	236.064	236.064	411.88	78.688
4519.5	2815.65	1407.83	146.536	2180.27	244.617	244.227	439.091	81.4091
4519.67	2846.41	1423.21	150.823	2185.57	258.653	251.372	462.905	83.7905
4519.83	2878.67	1439.33	155.163	2183.51	281.391	258.605	487.017	86.2017
4520	2914.49	1457.24	159.548	2176.26	312.764	265.914	511.379	88.6379
4520.17	2953.69	1476.84	163.969	2163.81	352.63	273.281	535.938	91.0938
4520.33	2996.01	1498.01	168.416	2146.13	400.768	280.693	560.643	93.5643
4520.5	3038.98	1519.49	172.879	2121.83	456.139	288.132	585.44	96.044
4520.67	3067.38	1533.69	177.484	2078.95	515.134	295.807	608.525	98.6025
4520.83	3096.92	1548.46	182.062	2031.63	579.799	303.437	631.455	101.146
4521	3127.23	1563.61	186.603	1980.01	649.607	311.004	654.181	103.668
4521.17	3157.85	1578.93	191.097	1924.28	723.979	318.495	676.652	106.165
4521.33	3182.45	1591.23	195.537	1858.74	802.281	325.895	698.817	108.632
4521.5	3198.63	1599.32	199.913	1781.7	883.83	333.188	720.627	111.063
4521.67	3204.96	1602.48	204.848	1693.99	964.71	341.414	738.879	113.805
4521.83	3194.25	1597.12	209.67	1605.43	1029.7	349.449	756.498	116.483
4522	3181.54	1590.77	214.371	1516.36	1093.52	357.285	773.449	119.095
4522.17	3144.52	1572.26	218.946	1404.77	1155.9	364.91	789.699	121.637
4522.33	3105.63	1552.81	223.389	1293.55	1216.38	372.315	805.217	124.105
4522.5	3068.18	1534.09	227.695	1186.51	1274.48	379.491	819.971	126.497
4522.67	3028.34	1514.17	232.974	1081.55	1325.53	388.291	830.969	129.43
4522.83	2976.96	1488.48	238.087	969.321	1372.74	396.812	841.039	132.271
4523	2916.9	1458.45	243.031	853.043	1415.78	405.052	850.172	135.017
4523.17	2866.24	1433.12	247.805	751.109	1454.32	413.008	858.361	137.669
4523.33	2825.08	1412.54	252.408	663.888	1488.1	420.68	865.6	140.227
4523.5	2792.93	1396.47	256.839	591.148	1516.88	428.066	871.886	142.689
4523.67	2732.81	1366.41	256.108	521.669	1528.19	426.846	870.321	142.282
4523.83	2684.98	1342.49	255.201	470.391	1534.05	425.335	867.783	141.778
4524	2649.3	1324.65	254.121	437.21	1534.44	423.535	864.284	141.178
4524.17	2625.6	1312.8	252.871	421.938	1529.34	421.451	859.837	140.484
4524.33	2613.69	1306.84	251.453	419.088	1518.84	424.309	854.459	166.271
4524.5	2613.34	1306.67	249.87	416.45	1503.04	443.978	848.168	199.625
4524.67	2651.87	1325.94	257.438	429.063	1471	494.374	834.376	235.165
4524.83	2699.57	1349.79	264.875	441.458	1434.87	558.364	819.86	268.338
4525	2753.07	1376.54	272.197	453.662	1395.28	631.93	804.707	299.111
4525.17	2809.31	1404.66	279.422	465.703	1352.86	711.325	789.011	327.459
4525.33	2869.75	1434.88	286.565	477.608	1308.27	797.311	772.86	353.366
4525.5	2933.45	1466.72	293.643	489.404	1262.14	888.256	756.347	376.825
4525.67	3023.25	1511.62	293.334	488.89	1244.49	996.531	759.634	407.205
4525.83	3095.79	1547.89	292.857	488.096	1222.63	1092.2	761.985	437.962
4526	3171.52	1585.76	292.208	487.013	1196.72	1195.58	763.378	469.016
4526.17	3250.52	1625.26	291.382	485.637	1166.95	1306.55	763.791	500.287
4526.33	3332.85	1666.42	290.377	483.961	1133.57	1424.94	763.204	531.691
4526.5	3402.57	1701.29	289.188	481.98	1096.83	1534.57	761.6	563.144
4526.67	3419.72	1709.86	277.133	461.889	1045.76	1634.94	754.63	593.527
4526.83	3429.42	1714.71	264.843	441.405	983.003	1740.17	746.349	624.316
4527	3432.9	1716.45	252.311	420.518	910.138	1849.94	736.727	655.392
4527.17	3435.77	1717.88	239.533	399.221	834.952	1962.06	725.736	686.63
4527.33	3426.67	1713.33	226.504	377.506	758.307	2064.35	713.355	717.904
4527.5	3417.86	1708.93	213.221	355.369	681.129	2168.14	699.564	749.084
4527.67	3382.57	1691.29	205.615	342.692	606.561	2227.7	675.64	764.313
4527.83	3348.37	1674.19	197.936	329.893	537.025	2283.52	651.312	778.024
4528	3311.74	1655.87	190.192	316.986	472.123	2332.44	626.621	790.201
4528.17	3269.88	1634.94	182.39	303.983	411.765	2371.74	601.611	800.831
4528.33	3231.26	1615.63	174.539	290.898	359.294	2406.53	576.325	809.904
4528.5	3196.32	1598.16	166.645	277.742	315.25	2436.68	550.807	817.414
4528.67	3077.77	1538.88	161.375	268.958	283.816	2363.62	509.859	790.418
4528.83	2962.43	1481.21	156.411	260.684	263.443	2281.89	470.615	760.825
4529	2844.32	1422.16	151.889	252.949	252.949	2186.54	433.164	728.845
4529.17	2726.7	1363.35	151.076	245.777	245.777	2084.07	397.589	694.691
4529.33	2609	1304.5	154.867	239.189	239.189	1975.75	363.964	658.583
4529.5	2491.08	1245.54	162.423	233.206	233.206	1862.24	332.355	620.748
4529.67	2297.52	1148.76	168.219	222.288	222.288	1684.72	293.461	561.575
4529.83	2102.41	1051.2	174.681	212.296	212.296	1503.13	257.653	501.045
4530	1904.46	952.23	179.478	203.244	203.244	1318.5	224.979	439.498
4530.17	1703.61	851.806	181.493	195.143	195.143	1131.83	195.475	377.278
4530.33	1499.99	749.997	179.81	188	188	944.184	169.166	314.728
4530.5	1147.81	573.904	173.046	72.7276	145.455	756.578	146.063	252.193
4530.67	983.855	491.927	159.919	63.0969	126.194	634.645	121.641	211.548
4530.83	816.717	408.359	142.374	53.6722	107.344	513.326	98.9347	171.109
4531	646.088	323.044	119.565	44.4523	88.9046	393.167	77.9357	131.056
4531.17	473.986	236.993	92.9737	35.4355	70.871	274.706	58.6289	91.5686
4531.33	300.569	150.284	62.2352	26.6192	53.2383	158.476	40.9929	52.8253
4531.5	126	63	27	18	36	45	25	15
4531.67	105	52.5	22.5	15	30	37.5	20.8333	12.5
4531.83	84	42	18	12	24	30	16.6667	10
4532	63	31.5	13.5	9	18	22.5	12.5	7.5
4532.17	42	21	9	6	12	15	8.33333	5
4532.33	21	10.5	4.5	3	6	7.5	4.16667	2.5
4532.5	0	0	0	0	0	0	0	0
4532.67	0	0	0	0	0	0	0	0
4532.83	0	0	0	0	0	0	0	0
4533	0	0	0	0	0	0	0	0
4533.17	0	0	0	0	0	0	0	0
4533.33	0	0	0	0	0	0	0	0
4533.5	0	0	0	0	0	0	0	0
4533.67	0	0	0	0	0	0	0	0
4533.83	0	0	0	0	0	0	0	0
4534	0	0	0	0	0	0	0	0
4534.17	0	0	0	0	0	0	0	0
4534.33	0	0	0	0	0	0	0	0
4534.5	0	0	0	0	0	0	0	0
4534.67	0	0	0	0	0	0	0	0
4534.83	0	0	0	0	0	0	0	0
4535	0	0	0	0	0	0	0	0
4535.17	0	0	0	0	0	0	0	0
4535.33	0	0	0	0	0	0	0	0
4535.5	0	0	0	0	0	0	0	0
4535.67	0	0	0	0	0	0	0	0
4535.83	0	0	0	0	0	0	0	0
4536	0	0	0	0	0	0	0	0
4536.17	0	0	0	0	0	0	0	0
4536.33	0	0	0	0	0	0	0	0
4536.5	0	0	0	0	0	0	0	0
4536.67	0	0	0	0	0	0	0	0
4536.83	0	0	0	0	0	0	0	0
4537	0	0	0	0	0	0	0	0
4537.17	0	0	0	0	0	0	0	0
4537.33	0	0	0	0	0	0	0	0
4537.5	0	0	0	0	0	0	0	0
4537.67	0	0	0	0	0	0	0	0
4537.83	0	0	0	0	0	0	0	0
4538	0	0	0	0	0	0	0	0
4538.17	0	0	0	0	0	0	0	0
4538.33	0	0	0	0	0	0	0	0
4538.5	0	0	0	0	0	0	0	0
4538.67	0	0	0	0	0	0	0	0
4538.83	0	0	0	0	0	0	0	0
4539	0	0	0	0	0	0	0	0
4539.17	0	0	0	0	0	0	0	0
4539.33	0	0	0	0	0	0	0	0
4539.5	0	0	0	0	0	0	0	0
4539.67	27.72	13.86	5.94	3.96	7.92	9.9	5.5	3.3
4539.83	55.44	27.72	11.88	7.92	15.84	19.8	11	6.6
4540	83.16	41.58	17.82	11.88	23.76	29.7	16.5	9.9
4540.17	172.14	86.0701	55.2324	45.3664	31.7961	39.7452	22.4839	13.2484
4540.33	214.495	107.247	66.7439	57.8708	39.9467	49.9333	28.9444	16.6444
4540.5	256.539	128.269	77.3671	70.7585	48.1835	60.2294	35.7645	20.0765
4540.67	362.29	181.145	108.75	107.217	65.0328	81.291	50.1366	27.097
4540.83	466.477	233.238	136.713	144.864	82.1773	102.722	65.7385	34.2405
4541	567.664	283.832	160.362	183.149	99.6235	124.529	82.598	41.5098
4541.17	667.01	333.505	180.806	222.105	117.377	146.722	100.738	48.9072
4541.33	764.665	382.333	198.321	261.598	135.443	169.304	120.178	56.4345
4541.5	860.759	430.38	213.196	301.46	153.824	192.28	140.932	64.0932
4541.67	902.029	451.014	210.514	301.796	173.208	216.511	156.702	72.1702
4541.83	942.002	471.001	207.384	301.53	192.484	240.604	172.014	80.2015
4542	983.787	491.894	206.861	300.723	211.646	264.557	186.857	88.1858
4542.17	1027.23	513.616	208.739	299.435	230.693	288.366	201.219	96.122
4542.33	1072.18	536.092	212.807	297.727	249.622	312.028	215.092	104.009
4542.5	1118.48	559.239	218.845	295.662	268.432	335.54	228.467	111.847
4542.67	1088.2	544.102	211.895	270.585	269.211	336.514	225.046	112.171
4542.83	1059.54	529.768	207.284	245.376	269.723	337.153	220.511	112.384
4543	1032.11	516.057	204.507	220.179	269.968	337.46	214.866	112.487
4543.17	1005.54	502.771	203.022	195.135	269.949	337.436	208.121	112.479
4543.33	979.448	489.724	202.305	170.387	269.669	337.087	200.288	112.362
4543.5	953.479	476.739	201.85	146.075	269.138	336.416	191.387	112.139
4543.67	1111.42	555.709	228.104	198.636	304.505	380.173	230.577	126.724
4543.83	1270.3	635.148	254.637	249.804	341.46	424.395	271.316	141.465
4544	1975.03	987.513	281.44	748.473	476.045	469.067	313.557	156.356
4544.17	2219.92	1109.96	308.505	867.999	529.24	514.175	357.25	171.392
4544.33	2465.41	1232.71	335.821	982.638	587.252	559.701	402.337	186.567
4544.5	2711.26	1355.63	363.376	1091.68	650.578	605.626	448.754	201.875
4544.67	2807.13	1403.56	378.253	1108.71	689.744	630.421	468.904	210.14
4544.83	2903.28	1451.64	393.141	1124.12	730.786	655.235	489.115	218.412
4545	2999.62	1499.81	408.036	1137.92	773.6	680.06	509.367	226.687
4545.17	3096.04	1548.02	422.936	1150.15	818.059	704.893	529.642	234.964
4545.33	3190.89	1595.45	437.836	1159.32	864.012	729.726	549.92	243.242
4545.5	3283.18	1641.59	452.733	1164.61	911.285	754.555	570.182	251.518
4545.67	3104.82	1552.41	436.261	1060.25	881.206	727.102	538.671	242.367
4545.83	2924.26	1462.13	419.585	962.849	842.514	699.308	506.026	233.103
4546	2745.83	1372.91	402.718	872.471	799.444	671.197	472.322	223.732
4546.17	2566.69	1283.35	385.675	786.141	752.085	642.792	437.638	214.264
4546.33	2391.48	1195.74	368.47	708.3	700.594	614.117	402.055	204.706
4546.5	2220.69	1110.35	351.119	639.187	645.189	585.198	365.659	195.066
4546.67	2150.24	1075.12	342.511	611.28	625.603	570.851	352.836	190.284
4546.83	2080.25	1040.12	333.866	584.926	605.012	556.443	339.81	185.481
4547	2011.05	1005.52	325.189	560.384	583.495	541.981	326.604	180.66
4547.17	1943.51	971.757	316.483	538.414	561.146	527.472	313.24	175.824
4547.33	1877.41	938.705	307.754	518.662	538.071	512.923	299.744	170.974
4547.5	1812.49	906.243	299.005	500.753	514.388	498.341	286.138	166.114
4547.67	1803.93	901.964	296.446	496.089	517.316	494.077	287.757	164.692
4547.83	1795.14	897.568	293.891	491.072	520.354	489.819	289.395	163.273
4548	1786.33	893.166	291.336	486.036	523.4	485.56	291.034	161.853
4548.17	1777.74	888.871	288.778	481.319	526.348	481.297	292.656	160.432
4548.33	1769.59	884.796	286.214	477.023	529.095	477.259	294.243	160.235
4548.5	1762.1	881.052	283.64	472.733	531.539	474.191	295.777	160.824
4548.67	1706.02	853.009	275.232	458.72	510.171	461.896	284.067	157.408
4548.83	1650.08	825.042	266.822	444.704	488.737	449.821	272.345	153.556
4549	1594	796.999	258.413	430.689	467.341	437.554	260.628	149.271
4549.17	1537.51	768.756	250.008	416.68	446.082	424.742	248.934	144.555
4549.33	1480.57	740.283	241.61	402.684	425.056	411.216	237.279	139.416
4549.5	1422.99	711.495	233.223	388.704	404.351	396.711	225.681	133.862
4549.67	1252.76	626.38	205.314	342.19	354.717	350.539	198.133	118.082
4549.83	1081.85	540.927	177.411	295.685	305.26	303.497	170.616	102.123
4550	709.95	354.975	149.515	99.6765	204.81	255.948	143.138	85.9891
4550.17	576.159	288.08	121.627	81.0845	165.604	207.844	115.704	69.6866
4550.33	441.996	220.998	93.7481	62.4988	126.608	159.14	88.3228	53.2214
4550.5	307.44	153.72	65.88	43.92	87.84	109.8	61	36.6
4550.67	270.48	135.24	57.96	38.64	77.28	96.6	53.6667	32.2
4550.83	233.52	116.76	50.04	33.36	66.72	83.4	46.3333	27.8
4551	196.56	98.28	42.12	28.08	56.16	70.2	39	23.4
4551.17	159.6	79.8	34.2	22.8	45.6	57	31.6667	19
4551.33	122.64	61.32	26.28	17.52	35.04	43.8	24.3333	14.6
4551.5	85.68	42.84	18.36	12.24	24.48	30.6	17	10.2
4551.67	355.906	177.953	45.0578	30.0385	74.9583	205.851	75.3208	70.1218
4551.83	628.861	314.431	71.3158	47.5439	118.624	391.378	131.199	132.801
4552	903.913	451.957	97.1131	64.7421	156.182	585.876	184.517	197.96
4552.17	1179.57	589.783	122.431	81.6204	188.213	787.302	235.17	265.312
4552.33	1457.32	728.66	147.251	98.1671	216.381	995.52	283.059	334.56
4552.5	1969.81	984.904	171.558	285.93	302.696	1209.63	328.099	405.399
4552.67	1809.9	904.95	161.011	268.351	274.703	1105.84	292.837	369.6
4552.83	1650.75	825.374	150.785	251.308	252.487	996.168	259.361	332.099
4553	1489.86	744.932	140.913	234.821	234.821	879.31	227.735	293.103
4553.17	1328.58	664.29	132.303	218.905	218.905	758.467	198.016	252.822
4553.33	1166.38	583.191	124.817	203.576	203.576	634.412	170.255	211.471
4553.5	851.975	425.988	117.558	75.5391	151.078	507.8	144.492	169.267
4553.67	765.447	382.724	110.098	69.1471	138.294	447.908	127.892	149.303
4553.83	678.238	339.119	102.526	62.8517	125.703	387.157	112.097	129.052
4554	590.098	295.049	94.3218	56.6542	113.308	325.814	97.1183	108.605
4554.17	500.978	250.489	85.1672	50.5556	101.111	264.144	82.9635	88.0479
4554.33	410.881	205.441	74.7973	44.5565	89.1129	202.415	69.637	67.4716
4554.5	319.717	159.859	62.8528	38.6568	77.3137	140.894	57.1403	46.9646
4554.67	281.196	140.598	56.2959	34.2148	68.4296	122.256	50.1234	40.7519
4554.83	242.441	121.22	49.4106	29.7886	59.5773	103.664	43.2386	34.5548
4555	203.408	101.704	42.111	25.3782	50.7565	85.162	36.4853	28.3873
4555.17	164.262	82.1308	34.5213	20.9835	41.967	66.7899	29.8622	22.2633
4555.33	125.015	62.5074	26.6133	16.6041	33.2083	48.5891	23.3679	16.1964
4555.5	85.68	42.84	18.36	12.24	24.48	30.6	17	10.2
4555.67	71.4	35.7	15.3	10.2	20.4	25.5	14.1667	8.5
4555.83	57.12	28.56	12.24	8.16	16.32	20.4	11.3333	6.8
4556	42.84	21.42	9.18	6.12	12.24	15.3	8.5	5.1
4556.17	28.56	14.28	6.12	4.08	8.16	10.2	5.66667	3.4
4556.33	14.28	7.14	3.06	2.04	4.08	5.1	2.83333	1.7
4556.5	0	0	0	0	0	0	0	0
4556.67	0	0	0	0	0	0	0	0
4556.83	0	0	0	0	0	0	0	0
4557	0	0	0	0	0	0	0	0
4557.17	0	0	0	0	0	0	0	0
4557.33	0	0	0	0	0	0	0	0
4557.5	0	0	0	0	0	0	0	0
4557.67	0	0	0	0	0	0	0	0
4557.83	0	0	0	0	0	0	0	0
4558	0	0	0	0	0	0	0	0
4558.17	0	0	0	0	0	0	0	0
4558.33	0	0	0	0	0	0	0	0
4558.5	0	0	0	0	0	0	0	0
4558.67	0	0	0	0	0	0	0	0
4558.83	0	0	0	0	0	0	0	0
4559	0	0	0	0	0	0	0	0
4559.17	0	0	0	0	0	0	0	0
4559.33	0	0	0	0	0	0	0	0
4559.5	0	0	0	0	0	0	0	0
4559.67	0	0	0	0	0	0	0	0
4559.83	0	0	0	0	0	0	0	0
4560	0	0	0	0	0	0	0	0
4560.17	0	0	0	0	0	0	0	0
4560.33	0	0	0	0	0	0	0	0
4560.5	0	0	0	0	0	0	0	0
4560.67	0	0	0	0	0	0	0	0
4560.83	0	0	0	0	0	0	0	0
4561	0	0	0	0	0	0	0	0
4561.17	0	0	0	0	0	0	0	0
4561.33	0	0	0	0	0	0	0	0
4561.5	0	0	0	0	0	0	0	0
4561.67	0	0	0	0	0	0	0	0
4561.83	0	0	0	0	0	0	0	0
4562	0	0	0	0	0	0	0	0
4562.17	0	0	0	0	0	0	0	0
4562.33	0	0	0	0	0	0	0	0
4562.5	0	0	0	0	0	0	0	0
4562.67	0	0	0	0	0	0	0	0
4562.83	0	0	0	0	0	0	0	0
4563	0	0	0	0	0	0	0	0
4563.17	0	0	0	0	0	0	0	0
4563.33	0	0	0	0	0	0	0	0
4563.5	0	0	0	0	0	0	0	0
4563.67	18.48	9.24	3.96	2.64	5.28	6.6	3.66667	2.2
4563.83	36.96	18.48	7.92	5.28	10.56	13.2	7.33333	4.4
4564	55.44	27.72	11.88	7.92	15.84	19.8	11	6.6
4564.17	73.92	36.96	15.84	10.56	21.12	26.4	14.6667	8.8
4564.33	92.4	46.2	19.8	13.2	26.4	33	18.3333	11
4564.5	110.88	55.44	23.76	15.84	31.68	39.6	22	13.2
4564.67	146.16	73.08	31.32	20.88	41.76	52.2	29	17.4
4564.83	181.44	90.72	38.88	25.92	51.84	64.8	36	21.6
4565	216.72	108.36	46.44	30.96	61.92	77.4	43	25.8
4565.17	252	126	54	36	72	90	50	30
4565.33	287.28	143.64	61.56	41.04	82.08	102.6	57	34.2
4565.5	322.56	161.28	69.12	46.08	92.16	115.2	64	38.4
4565.67	363.473	181.737	78.089	53.9857	102.844	128.555	71.849	42.8516
4565.83	404.172	202.086	86.7409	61.9322	113.555	141.944	79.8121	47.3146
4566	444.691	222.345	95.1253	69.9049	124.294	155.367	87.89	51.789
4566.17	485.066	242.533	103.292	77.8892	135.06	168.825	96.0829	56.275
4566.33	525.333	262.666	111.292	85.8701	145.854	182.317	104.391	60.7724
4566.5	565.525	282.763	119.173	93.8328	156.675	195.844	112.813	65.2813
4566.67	614.015	307.007	129.235	100.315	170.873	213.592	122.805	71.1972
4566.83	662.6	331.3	139.432	106.771	185.065	231.332	132.772	77.1105
4567	711.274	355.637	149.755	113.205	199.251	249.063	142.711	83.0211
4567.17	760.025	380.012	160.188	119.62	213.43	266.787	152.624	88.9291
4567.33	808.842	404.421	170.718	126.019	227.602	284.503	162.509	94.8343
4567.5	857.717	428.858	181.326	132.405	241.775	302.21	172.368	100.737
4567.67	849.761	424.881	179.721	130.786	239.719	299.535	170.951	99.8451
4567.83	841.849	420.924	178.113	129.138	237.743	296.855	169.515	98.9515
4568	833.987	416.994	176.501	127.484	235.834	294.168	168.059	98.0559
4568.17	826.166	413.083	174.885	125.826	233.979	291.475	166.583	97.1584
4568.33	818.374	409.187	173.266	124.167	232.164	288.777	165.089	96.2589
4568.5	810.59	405.295	171.644	122.506	230.368	286.073	163.575	95.3575
4568.67	1023.12	511.558	206.142	186.309	287.094	343.571	221.068	114.524
4568.83	1238.78	619.392	240.973	246.874	349.317	401.621	280.403	133.874
4569	2018.3	1009.15	276.117	760.059	521.929	460.195	341.482	153.398
4569.17	2340.01	1170.01	311.556	894.007	615.188	519.26	404.2	173.087
4569.33	2660.08	1330.04	347.27	1017.29	716.735	578.784	468.446	192.928
4569.5	2976.26	1488.13	383.239	1127.59	826.71	638.731	534.103	212.91
4569.67	3049.53	1524.77	380.246	1158.24	877.301	633.743	563.311	211.248
4569.83	3114.21	1557.11	377.45	1178.79	928.892	629.083	593.61	209.694
4570	3174.71	1587.35	374.827	1189.39	985.781	624.712	624.873	208.237
4570.17	3219.46	1609.73	372.355	1179.01	1047.5	620.591	656.969	206.864
4570.33	3256.59	1628.3	370.007	1156.4	1113.5	616.679	689.762	205.56
4570.5	3288.74	1644.37	367.761	1124.9	1183.15	612.934	723.115	204.311
4570.67	3210.61	1605.3	366.168	1040.28	1193.88	610.28	716.766	203.427
4570.83	3127.94	1563.97	364.428	955.21	1200.93	607.379	709.598	202.46
4571	3041.18	1520.59	362.546	870.151	1204.24	604.243	701.642	201.414
4571.17	2962.08	1481.04	360.528	796.851	1203.82	600.88	692.933	200.293
4571.33	2890.3	1445.15	358.381	734.916	1199.7	597.302	683.508	199.101
4571.5	2825.28	1412.64	356.113	683.703	1191.95	593.522	673.405	197.841
4571.67	2856.23	1428.11	379.629	679.011	1164.87	632.714	653.215	210.905
4571.83	2898.2	1449.1	402.987	690.738	1132.82	671.646	632.152	223.882
4572	2948.74	1474.37	426.224	715.324	1096.82	710.373	610.409	236.791
4572.17	3005.23	1502.61	449.373	749.126	1057.78	748.955	588.181	249.652
4572.33	3065.73	1532.87	472.47	787.449	1017.37	788.449	565.663	267.77
4572.5	3127.45	1563.73	495.549	825.916	976.417	829.568	543.051	283.499
4572.67	3009.2	1504.6	472.083	786.805	953.377	796.932	531.017	276.687
4572.83	2893.74	1446.87	448.577	747.629	929.074	768.455	518.762	270.934
4573	2781.18	1390.59	425.024	708.373	903.286	744.499	506.243	266.215
4573.17	2671.42	1335.71	401.415	669.025	875.807	725.174	493.417	262.5
4573.33	2565.31	1282.66	377.744	629.573	846.457	711.538	480.242	259.758
4573.5	2463.25	1231.63	354.002	590.004	815.077	704.168	466.679	257.95
4573.67	2495.65	1247.83	345.093	575.155	831.076	744.33	482.184	273.179
4573.83	2527.18	1263.59	336.021	560.034	842.488	788.636	496.781	290.909
4574	2564.01	1282.01	326.766	544.61	848.975	843.661	510.365	311.036
4574.17	2606.39	1303.2	317.31	528.851	850.274	909.955	522.835	333.446
4574.33	2654.54	1327.27	307.637	512.729	846.196	987.982	534.095	358.016
4574.5	2700.04	1350.02	297.729	496.216	836.627	1069.46	544.052	384.614
4574.67	2829.67	1414.84	296.937	494.894	847.137	1190.71	569.648	425.7
4574.83	2959.18	1479.59	295.805	493.009	847.204	1323.17	593.362	469.332
4575	3084.51	1542.25	294.315	490.525	833.025	1466.64	615.082	515.305
4575.17	3210.54	1605.27	292.446	487.411	811.227	1619.45	634.702	563.407
4575.33	3328.56	1664.28	290.182	483.637	782.616	1772.13	652.122	613.412
4575.5	3446.92	1723.46	287.505	479.175	748.161	1932.07	667.251	665.09
4575.67	3147.22	1573.61	269.809	449.681	642.809	1784.93	592.27	610.298
4575.83	2847.68	1423.84	252.644	421.074	553.02	1620.94	520.246	550.578
4576	2546.27	1273.13	236.047	393.411	477.61	1439.2	451.37	486.29
4576.17	2242.14	1121.07	220.048	366.747	414.787	1240.56	385.822	417.809
4576.33	1939.85	969.927	204.678	341.13	364.892	1029.15	323.765	345.526
4576.5	1638.56	819.279	189.963	316.606	325.892	806.097	265.352	269.844
4576.67	1522.94	761.469	181.956	303.26	306.728	730.994	241.699	244.153
4576.83	1407.58	703.788	174.171	290.284	290.944	652.178	219.28	217.398
4577	1291.16	645.581	166.619	277.692	277.692	569.16	198.139	189.72
4577.17	1174.42	587.209	159.645	265.493	265.493	483.786	178.311	161.262
4577.33	1056.97	528.484	153.056	253.698	253.698	396.514	159.827	132.171
4577.5	744.797	372.398	146.229	96.9258	193.852	307.791	142.715	102.597
4577.67	811.634	405.817	140.25	90.9259	181.852	398.607	146.049	132.869
4577.83	880.754	440.377	136.799	84.7005	169.401	489.853	147.504	163.284
4578	952.234	476.117	136.57	78.2481	156.496	580.921	147.067	193.64
4578.17	1026.11	513.054	140.203	71.5683	143.137	671.2	144.735	223.733
4578.33	1102.72	551.358	148.646	64.6615	129.323	760.085	140.512	253.362
4578.5	1182.28	591.14	162.722	57.5289	115.058	846.972	134.407	282.324
4578.67	1013.88	506.939	153.664	50.3175	100.635	709.261	110.979	236.42
4578.83	841.943	420.972	139.58	43.358	86.716	572.289	89.6501	190.763
4579	665.437	332.718	118.768	36.6492	73.2983	436.721	70.4097	145.574
4579.17	487.147	243.574	93.363	30.1888	60.3776	303.218	53.2399	101.073
4579.33	307.268	153.634	62.9163	23.9738	47.9475	172.431	38.1145	57.4769
4579.5	126	63	27	18	36	45	25	15
4579.67	105	52.5	22.5	15	30	37.5	20.8333	12.5
4579.83	84	42	18	12	24	30	16.6667	10
4580	63	31.5	13.5	9	18	22.5	12.5	7.5
4580.17	42	21	9	6	12	15	8.33333	5
4580.33	21	10.5	4.5	3	6	7.5	4.16667	2.5
4580.5	0	0	0	0	0	0	0	0
4580.67	0	0	0	0	0	0	0	0
4580.83	0	0	0	0	0	0	0	0
4581	0	0	0	0	0	0	0	0
4581.17	0	0	0	0	0	0	0	0
4581.33	0	0	0	0	0	0	0	0
4581.5	0	0	0	0	0	0	0	0
4581.67	0	0	0	0	0	0	0	0
4581.83	0	0	0	0	0	0	0	0
4582	0	0	0	0	0	0	0	0
4582.17	0	0	0	0	0	0	0	0
4582.33	0	0	0	0	0	0	0	0
4582.5	0	0	0	0	0	0	0	0
4582.67	0	0	0	0	0	0	0	0
4582.83	0	0	0	0	0	0	0	0
4583	0	0	0	0	0	0	0	0
4583.17	0	0	0	0	0	0	0	0
4583.33	0	0	0	0	0	0	0	0
4583.5	0	0	0	0	0	0	0	0
4583.67	0	0	0	0	0	0	0	0
4583.83	0	0	0	0	0	0	0	0
4584	0	0	0	0	0	0	0	0
